#time,accel_x,accel_y,accel_z
18562.066169,-191.425808,114.855485,-9839.286531
18562.068681,-248.853550,210.568389,-10011.569758
18562.071194,38.285162,210.568389,-9877.571693
18562.073707,-57.427742,-76.570323,-9934.999435
18562.076220,-19.142581,-363.709035,-9915.856854
18562.078732,95.712904,574.277424,-10107.282662
18562.081245,-114.855485,-114.855485,-9896.714274
18562.083758,-325.423874,-535.992262,-9762.716208
18562.086270,344.566454,325.423874,-10183.852986
18562.088783,-95.712904,-1205.982590,-9724.431046
18562.091296,-363.709035,-2124.826469,-9513.862658
18562.093809,-153.140646,899.701298,-10164.710405
18562.096321,574.277424,708.275490,-10088.140082
18562.098834,19.142581,-1722.832272,-9513.862658
18562.101347,440.279358,1914.258080,-10145.567824
18562.103859,1531.406464,-555.134843,-9896.714274
18562.106372,-861.416136,325.423874,-9954.142016
18562.108885,-880.558717,-95.712904,-9762.716208
18562.111398,-1225.125171,1895.115499,-10356.136213
18562.113910,-153.140646,172.283227,-9724.431046
18562.116423,918.843878,-631.705166,-9839.286531
18562.118936,650.847747,2373.680019,-10451.849117
18562.121448,-1780.260014,-803.988394,-9303.294269
18562.123961,-1933.400661,1473.978722,-9207.581365
18562.126474,325.423874,2947.957443,-10815.558152
18562.128987,287.138712,-516.849682,-9494.720077
18562.131499,-918.843878,-497.707101,-9705.288466
18562.134012,325.423874,1359.123237,-10260.423309
18562.136525,-669.990328,267.996131,-10068.997501
18562.139037,-57.427742,421.136778,-9762.716208
18562.141550,-899.701298,-363.709035,-9667.003304
18562.144063,114.855485,1167.697429,-10164.710405
18562.146576,-210.568389,191.425808,-9781.858789
18562.149094,-1052.841944,-248.853550,-9571.290400
18562.151613,-784.845813,1148.554848,-10068.997501
18562.154132,-555.134843,1225.125171,-10145.567824
18562.156651,-191.425808,478.564520,-9762.716208
18562.159169,-114.855485,95.712904,-9705.288466
18562.161688,153.140646,1014.556782,-10011.569758
18562.164207,-1205.982590,1129.412267,-10068.997501
18562.166726,-746.560651,-1033.699363,-9686.145885
18562.169245,421.136778,1282.552914,-10317.851051
18562.171763,-153.140646,459.421939,-9762.716208
18562.174282,-1129.412267,-1435.693560,-9265.009107
18562.176801,-478.564520,3637.090352,-10604.989763
18562.179320,-842.273555,-1703.689691,-9360.722011
18562.181839,-172.283227,2507.678085,-10413.563955
18562.184357,-555.134843,-1359.123237,-9303.294269
18562.186876,1703.689691,2641.676150,-9667.003304
18562.189395,210.568389,5800.201982,-11236.694930
18562.191914,-4728.217458,-10279.565890,-6948.756830
18562.194432,3981.656806,9245.866526,-13304.093656
18562.196951,1339.980656,-1301.695494,-9437.292334
18562.199470,-6049.055533,-12136.396227,-6374.479406
18562.201989,4957.928427,17706.887240,-15601.203352
18562.204508,-689.132909,-11389.835576,-6049.055533
18562.207026,-3751.945837,-842.273555,-9973.284597
18562.209545,5761.916821,9054.440718,-12921.242040
18562.212064,-4249.652938,-8384.450390,-6872.186507
18562.214583,650.847747,612.562586,-10490.134278
18562.217102,1780.260014,5493.920690,-11676.974288
18562.219620,899.701298,-803.988394,-9590.432981
18562.222139,-2086.541307,-4651.647134,-8499.305875
18562.224658,1110.269686,3905.086483,-11313.265253
18562.227177,344.566454,248.853550,-9801.001370
18562.229695,-1339.980656,-3388.236802,-8920.442653
18562.232214,1339.980656,2545.963246,-10872.985894
18562.234733,153.140646,-440.279358,-9762.716208
18562.237252,-784.845813,-1301.695494,-9494.720077
18562.239771,401.994197,1167.697429,-10241.280728
18562.242289,-574.277424,-497.707101,-9590.432981
18562.244808,-153.140646,57.427742,-9858.429112
18562.247327,1014.556782,-114.855485,-9992.427178
18562.249851,-76.570323,-823.130974,-9858.429112
18562.252375,-191.425808,-478.564520,-9934.999435
18562.254899,-650.847747,57.427742,-9801.001370
18562.257424,-535.992262,-593.420005,-9686.145885
18562.259948,535.992262,823.130974,-10317.851051
18562.262472,497.707101,-1531.406464,-9686.145885
18562.264996,38.285162,1014.556782,-10068.997501
18562.267520,76.570323,38.285162,-9934.999435
18562.270044,-2067.398726,-1225.125171,-9533.005238
18562.272569,669.990328,1282.552914,-10432.706536
18562.275093,57.427742,-1473.978722,-9647.860723
18562.277617,669.990328,-650.847747,-9667.003304
18562.280141,-842.273555,708.275490,-9954.142016
18562.282665,363.709035,-4249.652938,-9016.155557
18562.285189,861.416136,5953.342629,-11523.833642
18562.287714,-3675.375514,-5608.776174,-7676.174901
18562.290238,765.703232,2660.818731,-10930.413637
18562.292762,3005.385186,6853.043926,-11466.405899
18562.295286,-7082.754896,-14299.507858,-5283.352301
18562.297810,3981.656806,16137.195614,-14739.787216
18562.300334,803.988394,-5398.207786,-7580.461997
18562.302858,-3522.234867,-4785.645200,-8556.733618
18562.305383,4555.934230,10719.845248,-13418.949141
18562.307907,-3847.658741,-5800.201982,-7637.889739
18562.310431,-861.416136,-689.132909,-9609.575562
18562.312955,2431.107762,5474.778109,-11887.542677
18562.315479,-287.138712,976.271621,-9571.290400
18562.318003,-2737.389054,-3081.955509,-8595.018779
18562.320528,957.129040,4747.360038,-11734.402030
18562.323052,-210.568389,459.421939,-9571.290400
18562.325576,-1512.263883,-3254.238736,-8805.587168
18562.328100,765.703232,4268.795518,-11351.550414
18562.330624,-516.849682,-899.701298,-9226.723946
18562.333148,-2258.824534,-1531.406464,-9437.292334
18562.335673,1263.410333,2756.531635,-10815.558152
18562.338197,172.283227,76.570323,-9686.145885
18562.340721,-344.566454,-784.845813,-9609.575562
18562.343245,-210.568389,382.851616,-9839.286531
18562.345769,-497.707101,2105.683888,-10222.138147
18562.348293,-478.564520,1493.121302,-10068.997501
18562.350822,-593.420005,-1416.550979,-9379.864592
18562.353351,899.701298,1818.545176,-10490.134278
18562.355880,-535.992262,1186.840010,-9954.142016
18562.358409,-1225.125171,-1148.554848,-9226.723946
18562.360938,516.849682,1722.832272,-10375.278794
18562.363467,-1167.697429,-210.568389,-9686.145885
18562.365996,-76.570323,-421.136778,-9781.858789
18562.368525,478.564520,2411.965181,-10298.708470
18562.371053,-229.710970,-957.129040,-9552.147819
18562.373582,-899.701298,1875.972918,-10260.423309
18562.376111,842.273555,-516.849682,-9820.143950
18562.378640,267.996131,4364.508422,-10719.845248
18562.381169,-2679.961312,-5379.065205,-8193.024582
18562.383698,2584.248408,4383.651003,-11542.976222
18562.386227,516.849682,2086.541307,-10068.997501
18562.388756,-5608.776174,-12327.822035,-6297.909083
18562.391285,6776.473603,15620.345933,-15180.066574
18562.393813,-1148.554848,-10509.276859,-6795.616184
18562.396342,-3866.801322,-2143.969050,-9379.864592
18562.398871,5819.344563,11313.265253,-13763.515595
18562.401400,-4402.793584,-10336.993632,-6049.055533
18562.403929,1205.982590,1952.543242,-11217.552349
18562.406458,2450.250342,5551.348432,-11619.546546
18562.408987,-3464.807125,-7350.751027,-7331.608446
18562.411516,-1990.828403,-4460.221326,-8748.159426
18562.414045,2833.101958,4919.643266,-11810.972354
18562.416574,133.998066,-2258.824534,-9111.868461
18562.419102,-1435.693560,-2852.244539,-9035.298138
18562.421631,1186.840010,4632.504554,-11351.550414
18562.424160,-516.849682,-1990.828403,-9284.151688
18562.426689,-823.130974,-1359.123237,-9667.003304
18562.429218,1684.547110,2124.826469,-10509.276859
18562.431747,-918.843878,-1244.267752,-9494.720077
18562.434276,-421.136778,19.142581,-9743.573627
18562.436805,555.134843,-229.710970,-9954.142016
18562.439334,-248.853550,287.138712,-10145.567824
18562.441862,-401.994197,-287.138712,-10049.854920
18562.444391,-631.705166,-1205.982590,-9552.147819
18562.446920,210.568389,1148.554848,-10298.708470
18562.449449,-133.998066,-995.414202,-9724.431046
18562.451982,-478.564520,-1531.406464,-9686.145885
18562.454515,1071.984525,1952.543242,-10509.276859
18562.457048,-153.140646,-1148.554848,-9609.575562
18562.459580,-1952.543242,-1205.982590,-9360.722011
18562.462113,1148.554848,1875.972918,-10528.419440
18562.464646,-57.427742,-1588.834206,-9590.432981
18562.467179,459.421939,-555.134843,-9762.716208
18562.469712,-248.853550,0.000000,-9896.714274
18562.472245,937.986459,-459.421939,-9992.427178
18562.474777,-19.142581,4575.076811,-11083.554283
18562.477310,-3483.949706,-7082.754896,-7484.749093
18562.479843,2469.392923,7465.606512,-12232.109131
18562.482376,325.423874,1052.841944,-9513.862658
18562.484909,-5570.491013,-10758.130410,-6527.620053
18562.487442,5761.916821,17706.887240,-15907.484645
18562.489974,-1722.832272,-10987.841379,-5608.776174
18562.492507,-2526.820666,555.134843,-10030.712339
18562.495040,4747.360038,9399.007173,-12557.533005
18562.497573,-5187.639397,-8212.167163,-6565.905214
18562.500106,555.134843,2871.387120,-10356.136213
18562.502639,1397.408398,4211.367776,-11160.124606
18562.505171,-1914.258080,-6202.196179,-8614.161360
18562.507704,-1186.840010,-937.986459,-9513.862658
18562.510237,1359.123237,5168.496816,-11332.407834
18562.512770,-1359.123237,-1971.685822,-8729.016845
18562.515303,-861.416136,-287.138712,-9992.427178
18562.517836,918.843878,2526.820666,-10719.845248
18562.520368,-669.990328,-1186.840010,-9265.009107
18562.522901,-1148.554848,-325.423874,-9839.286531
18562.525434,612.562586,1818.545176,-10681.560086
18562.527967,-1148.554848,172.283227,-9628.718142
18562.530500,-401.994197,-727.418070,-9533.005238
18562.533033,421.136778,2182.254211,-10336.993632
18562.535565,-689.132909,-57.427742,-9743.573627
18562.538098,-1416.550979,-995.414202,-9303.294269
18562.540631,-153.140646,1818.545176,-10279.565890
18562.543164,19.142581,1818.545176,-10145.567824
18562.545697,-574.277424,-1550.549045,-9437.292334
18562.548230,650.847747,1531.406464,-10413.563955
18562.550762,-555.134843,937.986459,-9877.571693
18562.553299,-2105.683888,-2297.109696,-9131.011042
18562.555835,-440.279358,3751.945837,-10643.274925
18562.558371,363.709035,-1110.269686,-9494.720077
18562.560907,-689.132909,1339.980656,-9973.284597
18562.563443,287.138712,-1167.697429,-9533.005238
18562.565979,172.283227,4709.074877,-11045.269122
18562.568515,-3388.236802,-5838.487144,-9245.866526
18562.571051,-1550.549045,-4268.795518,-8767.302006
18562.573588,4977.071008,11676.974288,-13246.665914
18562.576124,-4766.502619,-14701.502054,-5493.920690
18562.578660,555.134843,5168.496816,-12251.251712
18562.581196,3924.229064,6680.760699,-11983.255581
18562.583732,-5685.346498,-14012.369146,-5206.781978
18562.586268,3369.094221,10892.128475,-13763.515595
18562.588804,325.423874,-765.703232,-9322.436850
18562.591340,-3905.086483,-7561.319416,-7561.319416
18562.593877,4536.791650,7312.465866,-12327.822035
18562.596413,-1856.830338,-2794.816797,-8614.161360
18562.598949,-1780.260014,-4000.799387,-8958.727814
18562.601485,1301.695494,2622.533570,-11102.696864
18562.604021,2009.970984,1684.547110,-10356.136213
18562.606557,-2220.539373,-4536.791650,-8365.307810
18562.609093,650.847747,2565.105827,-10853.843314
18562.611629,784.845813,1014.556782,-10164.710405
18562.614166,-2431.107762,-3235.096155,-8958.727814
18562.616702,1588.834206,2411.965181,-10700.702667
18562.619238,95.712904,-76.570323,-9877.571693
18562.621774,-746.560651,-2354.537438,-9207.581365
18562.624310,1435.693560,2316.252277,-10585.847182
18562.626846,-516.849682,-1665.404530,-9513.862658
18562.629382,-918.843878,-899.701298,-9820.143950
18562.631918,1588.834206,1244.267752,-10394.421374
18562.634455,516.849682,-1263.410333,-9781.858789
18562.636991,-1148.554848,-210.568389,-9781.858789
18562.639527,-19.142581,669.990328,-10164.710405
18562.642063,-19.142581,-1588.834206,-9628.718142
18562.644599,842.273555,2105.683888,-10451.849117
18562.647135,823.130974,-2143.969050,-9341.579430
18562.649671,-1186.840010,401.994197,-9973.284597
18562.652207,229.710970,-957.129040,-9839.286531
18562.654747,191.425808,2813.959378,-10681.560086
18562.657286,-1205.982590,-5379.065205,-8575.876198
18562.659826,2545.963246,5187.639397,-11523.833642
18562.662365,-2182.254211,-516.849682,-9111.868461
18562.664904,-5704.489078,-11868.400096,-6259.623922
18562.667444,3196.810994,12327.822035,-13361.521398
18562.669983,1052.841944,-401.994197,-9035.298138
18562.672523,-5302.494882,-9092.725880,-7063.612315
18562.675062,3905.086483,14184.652373,-14031.511726
18562.677601,-2297.109696,-7312.465866,-7121.040058
18562.680141,-2354.537438,-1397.408398,-9245.866526
18562.682680,2928.814862,8135.596840,-12787.243974
18562.685220,-3407.379382,-4919.643266,-7867.600709
18562.687759,1205.982590,1435.693560,-10547.562021
18562.690298,784.845813,3177.668413,-10930.413637
18562.692838,-2220.539373,-2565.105827,-8614.161360
18562.695377,-574.277424,2679.961312,-9858.429112
18562.697916,650.847747,2565.105827,-10700.702667
18562.700456,-287.138712,-516.849682,-9513.862658
18562.702995,-765.703232,-344.566454,-9954.142016
18562.705535,765.703232,861.416136,-10049.854920
18562.708074,-1263.410333,287.138712,-9724.431046
18562.710613,-784.845813,-631.705166,-9705.288466
18562.713153,-287.138712,1818.545176,-10298.708470
18562.715692,-133.998066,306.281293,-9724.431046
18562.718232,-1071.984525,-95.712904,-9743.573627
18562.720771,95.712904,1914.258080,-10241.280728
18562.723310,-1033.699363,842.273555,-9820.143950
18562.725850,153.140646,57.427742,-9801.001370
18562.728389,478.564520,803.988394,-10202.995566
18562.730929,-593.420005,957.129040,-9858.429112
18562.733468,-1761.117434,-1359.123237,-9341.579430
18562.736007,-497.707101,2737.389054,-10547.562021
18562.738547,918.843878,-133.998066,-9743.573627
18562.741086,-976.271621,344.566454,-9801.001370
18562.743626,899.701298,-344.566454,-9839.286531
18562.746165,-631.705166,4096.512291,-10566.704602
18562.748704,-2239.681954,-6297.909083,-8059.026517
18562.751244,2871.387120,8346.165229,-12500.105262
18562.753783,-2143.969050,-5283.352301,-8212.167163
18562.756307,-1531.406464,-4345.365842,-9360.722011
18562.758833,6833.901346,12614.960747,-13916.656242
18562.761358,440.279358,-6355.336826,-7810.172966
18562.763883,-5359.922624,-5666.203917,-8001.598774
18562.766408,5474.778109,11964.113000,-13954.941403
18562.768934,-2967.100024,-7752.745224,-6948.756830
18562.771459,344.566454,-842.273555,-10068.997501
18562.773984,3503.092286,6202.196179,-12117.253646
18562.776509,-3407.379382,-6489.334891,-7637.889739
18562.779035,133.998066,1454.836141,-10834.700733
18562.781560,1550.549045,2737.389054,-10872.985894
18562.784085,-1761.117434,-5111.069074,-8212.167163
18562.786610,1167.697429,2086.541307,-10777.272990
18562.789136,669.990328,746.560651,-10164.710405
18562.791661,478.564520,-1818.545176,-9533.005238
18562.794186,-1167.697429,-459.421939,-9801.001370
18562.796711,823.130974,689.132909,-10298.708470
18562.799237,19.142581,612.562586,-10202.995566
18562.801762,76.570323,-1129.412267,-9533.005238
18562.804287,-210.568389,-382.851616,-9896.714274
18562.806812,38.285162,497.707101,-10222.138147
18562.809338,-210.568389,-957.129040,-9743.573627
18562.811863,421.136778,-1569.691626,-9667.003304
18562.814388,-306.281293,995.414202,-10107.282662
18562.816913,-918.843878,-191.425808,-9781.858789
18562.819439,401.994197,-803.988394,-9896.714274
18562.821964,631.705166,1837.687757,-10470.991698
18562.824489,880.558717,-1914.258080,-9667.003304
18562.827015,-1646.261949,-363.709035,-9724.431046
18562.829540,401.994197,-191.425808,-10011.569758
18562.832065,172.283227,2545.963246,-10490.134278
18562.834590,-1052.841944,-5838.487144,-8518.448456
18562.837116,2794.816797,5915.057467,-11753.544611
18562.839641,-2756.531635,-2143.969050,-8786.444587
18562.842166,-2182.254211,-4383.651003,-8863.014910
18562.844691,5321.637462,14203.794954,-13974.083984
18562.847217,-6106.483275,-13744.373014,-5398.207786
18562.849742,-57.427742,8059.026517,-12155.538808
18562.852267,5264.209720,4728.217458,-11504.691061
18562.854792,-5934.200048,-10470.991698,-6010.770371
18562.857322,-1933.400661,-421.136778,-9418.149754
18562.859852,2163.111630,7484.749093,-12461.820101
18562.862382,-3081.955509,-4804.787781,-8001.598774
18562.864912,1225.125171,2163.111630,-10700.702667
18562.867442,957.129040,2163.111630,-10585.847182
18562.869972,-1761.117434,-1837.687757,-9016.155557
18562.872502,-1014.556782,2277.967115,-10375.278794
18562.875032,-765.703232,765.703232,-9839.286531
18562.877562,-76.570323,-191.425808,-9686.145885
18562.880092,19.142581,708.275490,-10068.997501
18562.882622,-153.140646,-535.992262,-9552.147819
18562.885152,-1052.841944,784.845813,-10202.995566
18562.887682,-248.853550,1703.689691,-10470.991698
18562.890212,-784.845813,95.712904,-9647.860723
18562.892742,-478.564520,248.853550,-9781.858789
18562.895272,-382.851616,2411.965181,-10317.851051
18562.897802,-382.851616,133.998066,-9686.145885
18562.900332,-19.142581,306.281293,-10049.854920
18562.902862,248.853550,497.707101,-10126.425243
18562.905392,-1339.980656,478.564520,-9762.716208
18562.907922,-344.566454,-191.425808,-9686.145885
18562.910452,-593.420005,1741.974853,-10222.138147
18562.912982,459.421939,229.710970,-9686.145885
18562.915512,-708.275490,210.568389,-9781.858789
18562.918042,957.129040,612.562586,-9513.862658
18562.920572,-612.562586,4996.213589,-10968.698798
18562.923102,-2584.248408,-5685.346498,-8078.169098
18562.925632,3024.527766,6068.198114,-11849.257515
18562.928162,-669.990328,-1588.834206,-8997.012976
18562.930692,-3081.955509,-8135.596840,-8135.596840
18562.933222,6470.192310,13706.087853,-14433.505923
18562.935752,-3617.947771,-13782.658176,-5647.061336
18562.938282,-2488.535504,3943.371645,-11351.550414
18562.940812,4728.217458,6642.475538,-11983.255581
18562.943342,-4326.223261,-9724.431046,-6719.045861
18562.945872,3101.098090,5091.926493,-11925.827838
18562.948402,440.279358,1320.838075,-10470.991698
18562.950932,-2679.961312,-4919.643266,-8173.882002
18562.953462,-612.562586,555.134843,-10451.849117
18562.955992,1646.261949,2431.107762,-10738.987829
18562.958526,-746.560651,-3617.947771,-8748.159426
18562.961060,516.849682,459.421939,-10375.278794
18562.963594,57.427742,880.558717,-10107.282662
18562.966128,-746.560651,-823.130974,-9494.720077
18562.968662,-727.418070,-363.709035,-9858.429112
18562.971196,1071.984525,1473.978722,-10528.419440
18562.973730,-248.853550,-535.992262,-9628.718142
18562.976264,38.285162,-1550.549045,-9437.292334
18562.978798,497.707101,918.843878,-10375.278794
18562.981332,-38.285162,-746.560651,-10011.569758
18562.983866,-1454.836141,-1971.685822,-9418.149754
18562.986400,57.427742,708.275490,-9934.999435
18562.988934,669.990328,1014.556782,-10126.425243
18562.991468,-957.129040,-2565.105827,-9322.436850
18562.994002,1071.984525,2526.820666,-10700.702667
18562.996536,1205.982590,-1244.267752,-9762.716208
18562.999070,-2124.826469,-1320.838075,-9513.862658
18563.001604,708.275490,421.136778,-10317.851051
18563.004138,38.285162,1971.685822,-10394.421374
18563.006672,-765.703232,-5742.774240,-8499.305875
18563.009206,2737.389054,6910.471669,-12117.253646
18563.011740,-3732.803256,-4670.789715,-8116.454259
18563.014274,-4651.647134,-593.420005,-7044.469734
18563.016808,4957.928427,15275.779478,-14529.218827
18563.019342,-2239.681954,-7523.034254,-6872.186507
18563.021876,-3311.666478,-1473.978722,-9686.145885
18563.024410,5838.487144,11274.980091,-13438.091722
18563.026944,-5034.498750,-9973.284597,-5991.627790
18563.029479,-1052.841944,2833.101958,-10298.708470
18563.032013,861.416136,5264.209720,-11064.411702
18563.034547,-2526.820666,-5206.781978,-7752.745224
18563.037081,1531.406464,3598.805190,-10930.413637
18563.039615,823.130974,1435.693560,-10030.712339
18563.042149,-1837.687757,-2813.959378,-8901.300072
18563.044683,-516.849682,2813.959378,-10509.276859
18563.047217,612.562586,3790.230998,-11121.839445
18563.049751,-0.000000,-1205.982590,-9073.583299
18563.052285,-267.996131,-612.562586,-9915.856854
18563.054819,650.847747,1895.115499,-10336.993632
18563.057353,-1703.689691,-823.130974,-9552.147819
18563.059890,-306.281293,1225.125171,-10260.423309
18563.062428,-516.849682,995.414202,-9954.142016
18563.064966,-1244.267752,210.568389,-9533.005238
18563.067504,478.564520,2622.533570,-10298.708470
18563.070041,401.994197,-880.558717,-9705.288466
18563.072579,-516.849682,-210.568389,-9992.427178
18563.075117,-957.129040,2143.969050,-10222.138147
18563.077655,-1493.121302,-1435.693560,-9322.436850
18563.080192,-1148.554848,1033.699363,-9934.999435
18563.082730,1665.404530,1761.117434,-10317.851051
18563.085268,-287.138712,19.142581,-9762.716208
18563.087806,-38.285162,-1569.691626,-9418.149754
18563.090343,-1014.556782,5417.350366,-11102.696864
18563.092881,-2316.252277,-5493.920690,-8327.022648
18563.095419,2928.814862,6642.475538,-11830.114934
18563.097957,-1550.549045,-4249.652938,-8384.450390
18563.100495,-1033.699363,-3560.520029,-9533.005238
18563.103032,5819.344563,10853.843314,-13265.808494
18563.105570,-5685.346498,-15639.488514,-4977.071008
18563.108108,-516.849682,8958.727814,-12978.669782
18563.110646,5321.637462,10451.849117,-13476.376883
18563.113183,-2277.967115,-7695.317482,-7101.897477
18563.115721,555.134843,497.707101,-10375.278794
18563.118259,2201.396792,4555.934230,-11600.403965
18563.120797,-3081.955509,-5819.344563,-8154.739421
18563.123334,421.136778,1914.258080,-10777.272990
18563.125872,995.414202,1875.972918,-10356.136213
18563.128410,-1550.549045,-3828.516160,-8690.731683
18563.130948,1052.841944,1741.974853,-10777.272990
18563.133485,784.845813,382.851616,-10107.282662
18563.136023,-976.271621,-1454.836141,-9418.149754
18563.138561,-516.849682,650.847747,-9934.999435
18563.141099,-306.281293,19.142581,-10068.997501
18563.143637,-535.992262,-76.570323,-10030.712339
18563.146174,1129.412267,325.423874,-10011.569758
18563.148712,-57.427742,-2143.969050,-9456.434915
18563.151250,-957.129040,-631.705166,-10068.997501
18563.153788,-38.285162,2048.256146,-10547.562021
18563.156325,-535.992262,-1761.117434,-9245.866526
18563.158863,344.566454,-497.707101,-9820.143950
18563.161404,1435.693560,2890.529701,-10930.413637
18563.163945,-172.283227,-3101.098090,-9245.866526
18563.166486,-1607.976787,-38.285162,-9896.714274
18563.169027,689.132909,861.416136,-10260.423309
18563.171568,-574.277424,478.564520,-9896.714274
18563.174109,-746.560651,-5819.344563,-8384.450390
18563.176650,2813.959378,4479.363907,-11351.550414
18563.179191,-2201.396792,765.703232,-9590.432981
18563.181732,-3139.383251,-6853.043926,-8231.309744
18563.184273,4823.930362,14299.507858,-14567.503989
18563.186814,-4326.223261,-11313.265253,-6010.770371
18563.189355,-823.130974,5111.069074,-11389.835576
18563.191896,5627.918755,6680.760699,-12040.683323
18563.194437,-6240.481341,-10202.995566,-6029.912952
18563.196978,38.285162,6412.764568,-11428.120738
18563.199519,-401.994197,1990.828403,-10145.567824
18563.202059,-1703.689691,-4307.080680,-8250.452325
18563.204600,1684.547110,4326.223261,-11179.267187
18563.207141,1301.695494,2258.824534,-10872.985894
18563.209682,-1933.400661,-1473.978722,-8977.870395
18563.212223,-861.416136,937.986459,-10049.854920
18563.214764,76.570323,1971.685822,-10336.993632
18563.217305,-918.843878,-861.416136,-9341.579430
18563.219846,-287.138712,19.142581,-9973.284597
18563.222387,995.414202,1933.400661,-10317.851051
18563.224928,-1091.127106,-957.129040,-9379.864592
18563.227469,-899.701298,363.709035,-9896.714274
18563.230010,-440.279358,2488.535504,-10451.849117
18563.232551,-1014.556782,-95.712904,-9513.862658
18563.235092,669.990328,267.996131,-9762.716208
18563.237633,478.564520,1397.408398,-10241.280728
18563.240174,-957.129040,1282.552914,-10068.997501
18563.242715,-2124.826469,-1512.263883,-9265.009107
18563.245256,-669.990328,2297.109696,-10317.851051
18563.247797,1646.261949,1320.838075,-10164.710405
18563.250338,-1186.840010,-1416.550979,-9226.723946
18563.252879,746.560651,669.990328,-10145.567824
18563.255420,-1052.841944,3713.660675,-10662.417506
18563.257961,-1167.697429,-4938.785846,-8671.589102
18563.260502,1818.545176,8135.596840,-11964.113000
18563.263045,-3139.383251,-8671.589102,-7101.897477
18563.265589,1914.258080,3675.375514,-11657.831707
18563.268132,4019.941968,4613.361973,-11140.982026
18563.270676,-3771.088418,-13878.371080,-5666.203917
18563.273219,-2679.961312,3866.801322,-11408.978157
18563.275763,5053.641331,6910.471669,-12155.538808
18563.278306,-3924.229064,-10068.997501,-6585.047795
18563.280850,2756.531635,4977.071008,-11696.116869
18563.283393,210.568389,1837.687757,-10681.560086
18563.285937,-2545.963246,-5379.065205,-8441.878133
18563.288480,957.129040,2909.672282,-11102.696864
18563.291024,-440.279358,57.427742,-9743.573627
18563.293568,-957.129040,-2182.254211,-9169.296203
18563.296111,1627.119368,1339.980656,-10490.134278
18563.298655,19.142581,-746.560651,-9686.145885
18563.301198,-1148.554848,-861.416136,-9552.147819
18563.303742,-0.000000,842.273555,-10145.567824
18563.306285,76.570323,114.855485,-9954.142016
18563.308829,-133.998066,-1550.549045,-9628.718142
18563.311372,1282.552914,1129.412267,-10451.849117
18563.313916,-669.990328,-2239.681954,-9360.722011
18563.316459,-1225.125171,-95.712904,-10030.712339
18563.319003,631.705166,1703.689691,-10490.134278
18563.321546,-497.707101,-3311.666478,-9073.583299
18563.324090,957.129040,2392.822600,-10451.849117
18563.326633,899.701298,-325.423874,-9954.142016
18563.329177,-1990.828403,-3139.383251,-9169.296203
18563.331721,1473.978722,3062.812928,-10968.698798
18563.334264,248.853550,3043.670347,-10738.987829
18563.336808,-172.283227,-6163.911018,-8480.163294
18563.339351,1531.406464,6106.483275,-11753.544611
18563.341895,-3311.666478,-5915.057467,-7752.745224
18563.344438,1129.412267,4709.074877,-11313.265253
18563.346982,689.132909,3311.666478,-10183.852986
18563.349525,-6049.055533,-10624.132344,-6604.190376
18563.352069,5359.922624,16213.765938,-15180.066574
18563.354612,-248.853550,-8633.303941,-7101.897477
18563.357156,-3311.666478,-1607.976787,-9686.145885
18563.359699,4804.787781,10088.140082,-13438.091722
18563.362243,-4555.934230,-7235.895542,-7389.036189
18563.364772,-1780.260014,1646.261949,-8461.020714
18563.367301,1301.695494,4919.643266,-11466.405899
18563.369830,-191.425808,-382.851616,-9322.436850
18563.372359,19.142581,-880.558717,-9762.716208
18563.374888,19.142581,1569.691626,-10260.423309
18563.377417,-746.560651,1091.127106,-10107.282662
18563.379946,-555.134843,-765.703232,-9667.003304
18563.382475,727.418070,2029.113565,-10547.562021
18563.385004,-937.986459,-555.134843,-9437.292334
18563.387533,-842.273555,-38.285162,-9934.999435
18563.390062,229.710970,3273.381317,-10585.847182
18563.392591,-1493.121302,-1665.404530,-9150.153622
18563.395120,-382.851616,1416.550979,-10356.136213
18563.397649,1205.982590,2890.529701,-10624.132344
18563.400178,-1071.984525,306.281293,-9609.575562
18563.402707,-880.558717,-784.845813,-9609.575562
18563.405236,459.421939,2622.533570,-10566.704602
18563.407765,-1282.552914,114.855485,-9475.577496
18563.410294,-1339.980656,-1473.978722,-9322.436850
18563.412823,1454.836141,3962.514226,-10911.271056
18563.415352,-1167.697429,-2450.250342,-8958.727814
18563.417881,459.421939,2163.111630,-10394.421374
18563.420410,-1914.258080,880.558717,-10049.854920
18563.422939,191.425808,-3483.949706,-9111.868461
18563.425467,3445.664544,8652.446522,-12136.396227
18563.427996,-4728.217458,-13150.953010,-8039.883936
18563.430525,-4153.940034,-5532.205851,-8748.159426
18563.433054,5245.067139,13150.953010,-14146.367211
18563.435583,-3139.383251,-12078.968485,-5493.920690
18563.438112,-1052.841944,2297.109696,-11121.839445
18563.440641,3235.096155,5761.916821,-11447.263318
18563.443170,-3273.381317,-7676.174901,-7331.608446
18563.445699,2373.680019,2545.963246,-11006.983960
18563.448228,-267.996131,899.701298,-10260.423309
18563.450757,-2143.969050,-2794.816797,-8977.870395
18563.453286,1033.699363,765.703232,-10336.993632
18563.455815,1091.127106,957.129040,-10107.282662
18563.458344,-612.562586,-2488.535504,-9169.296203
18563.460873,-1052.841944,-899.701298,-9571.290400
18563.463402,478.564520,1205.982590,-10145.567824
18563.465935,-133.998066,-401.994197,-9877.571693
18563.468469,57.427742,-1052.841944,-9609.575562
18563.471002,650.847747,-363.709035,-9915.856854
18563.473535,-191.425808,267.996131,-10164.710405
18563.476068,-1052.841944,-1339.980656,-9590.432981
18563.478602,574.277424,-382.851616,-9954.142016
18563.481135,-19.142581,382.851616,-10107.282662
18563.483668,-650.847747,-803.988394,-9475.577496
18563.486201,1703.689691,57.427742,-10260.423309
18563.488735,-363.709035,210.568389,-9954.142016
18563.491268,-1397.408398,-2718.246474,-9284.151688
18563.493801,689.132909,3120.240670,-11006.983960
18563.496335,-478.564520,-2239.681954,-9379.864592
18563.498868,1205.982590,-535.992262,-10049.854920
18563.501401,-535.992262,4613.361973,-10700.702667
18563.503934,-3732.803256,-8537.591037,-7465.606512
18563.506468,4287.938099,13495.519464,-13840.085918
18563.509001,-2124.826469,-6967.899411,-7331.608446
18563.511534,-2986.242605,-631.705166,-9820.143950
18563.514067,5302.494882,10604.989763,-12978.669782
18563.516601,-4919.643266,-9762.716208,-6106.483275
18563.519134,-1741.974853,3426.521963,-10911.271056
18563.521667,1531.406464,4364.508422,-11045.269122
18563.524200,-2201.396792,-4766.502619,-8939.585234
18563.526734,-172.283227,-306.281293,-9590.432981
18563.529267,976.271621,2086.541307,-10604.989763
18563.531800,-1531.406464,344.566454,-9743.573627
18563.534333,-459.421939,-669.990328,-9590.432981
18563.536867,-344.566454,1818.545176,-10241.280728
18563.539400,-478.564520,210.568389,-9934.999435
18563.541933,-880.558717,-267.996131,-9877.571693
18563.544466,248.853550,1454.836141,-10241.280728
18563.547000,-823.130974,535.992262,-9839.286531
18563.549533,-555.134843,133.998066,-9877.571693
18563.552066,-57.427742,899.701298,-9934.999435
18563.554599,-382.851616,612.562586,-9915.856854
18563.557133,-842.273555,2029.113565,-10164.710405
18563.559666,-421.136778,-689.132909,-9628.718142
18563.562199,-440.279358,765.703232,-10107.282662
18563.564732,899.701298,2009.970984,-10260.423309
18563.567269,-1607.976787,-1799.402595,-9188.438784
18563.569806,325.423874,1741.974853,-10336.993632
18563.572343,-803.988394,1416.550979,-10088.140082
18563.574879,1091.127106,-976.271621,-9705.288466
18563.577416,-650.847747,3962.514226,-10624.132344
18563.579953,-2641.676150,-7810.172966,-7829.315547
18563.582490,4766.502619,10643.274925,-13342.378818
18563.585026,-1627.119368,-8575.876198,-7006.184573
18563.587563,-6355.336826,-3426.521963,-5245.067139
18563.590100,2986.242605,14376.078181,-14758.929797
18563.592637,1282.552914,-4728.217458,-8212.167163
18563.595173,-4651.647134,-6795.616184,-7848.458128
18563.597710,4192.225195,9016.155557,-12748.958813
18563.600247,-1569.691626,-4039.084549,-8461.020714
18563.602784,38.285162,-2469.392923,-9284.151688
18563.605321,880.558717,3101.098090,-11140.982026
18563.607857,-918.843878,-1569.691626,-9513.862658
18563.610394,-267.996131,-1225.125171,-9686.145885
18563.612931,823.130974,918.843878,-10164.710405
18563.615468,-516.849682,-172.283227,-9858.429112
18563.618004,-153.140646,-344.566454,-9858.429112
18563.620541,191.425808,631.705166,-10183.852986
18563.623078,-19.142581,-957.129040,-9781.858789
18563.625615,-210.568389,-57.427742,-9954.142016
18563.628151,172.283227,133.998066,-9915.856854
18563.630688,-1148.554848,-1588.834206,-9590.432981
18563.633225,516.849682,287.138712,-10298.708470
18563.635762,-421.136778,-631.705166,-9686.145885
18563.638298,-669.990328,-765.703232,-9628.718142
18563.640835,1856.830338,1225.125171,-10604.989763
18563.643372,-976.271621,-1071.984525,-9609.575562
18563.645909,-382.851616,-2086.541307,-9513.862658
18563.648445,1110.269686,4957.928427,-11294.122672
18563.650982,-287.138712,-6374.479406,-8843.872330
18563.653519,1205.982590,248.853550,-10164.710405
18563.656056,-669.990328,4058.227130,-10834.700733
18563.658592,-4039.084549,-8288.737486,-7657.032320
18563.661129,4804.787781,13610.374949,-13782.658176
18563.663666,-2660.818731,-8173.882002,-6814.758765
18563.666203,-2660.818731,1244.267752,-10413.563955
18563.668743,5206.781978,9513.862658,-12576.675586
18563.671283,-5168.496816,-9858.429112,-6087.340694
18563.673823,-1531.406464,4441.078746,-11313.265253
18563.676363,1205.982590,3809.373579,-10662.417506
18563.678903,-2105.683888,-5264.209720,-7714.460062
18563.681443,574.277424,3541.377448,-10738.987829
18563.683984,727.418070,2660.818731,-10968.698798
18563.686524,-1339.980656,114.855485,-9820.143950
18563.689064,-95.712904,-650.847747,-9705.288466
18563.691604,38.285162,1473.978722,-10145.567824
18563.694144,-631.705166,440.279358,-10049.854920
18563.696684,-746.560651,-1110.269686,-9418.149754
18563.699224,459.421939,2622.533570,-10394.421374
18563.701764,-937.986459,-516.849682,-9609.575562
18563.704304,-689.132909,401.994197,-10011.569758
18563.706845,535.992262,1665.404530,-10202.995566
18563.709385,-1320.838075,133.998066,-9513.862658
18563.711925,325.423874,1971.685822,-10222.138147
18563.714465,-0.000000,-133.998066,-9877.571693
18563.717005,-1320.838075,38.285162,-9590.432981
18563.719545,-1052.841944,-650.847747,-9667.003304
18563.722085,478.564520,3273.381317,-10643.274925
18563.724625,-1225.125171,-2775.674216,-8805.587168
18563.727165,765.703232,3905.086483,-10815.558152
18563.729706,-2029.113565,-1493.121302,-9399.007173
18563.732246,1148.554848,-899.701298,-9801.001370
18563.734786,2220.539373,6872.186507,-11428.120738
18563.737326,-5225.924558,-13438.091722,-5972.485210
18563.739866,3541.377448,11064.411702,-13897.513661
18563.742406,1493.121302,-3866.801322,-8422.735552
18563.744946,-5647.061336,-7063.612315,-7618.747158
18563.747486,5168.496816,10700.702667,-12155.538808
18563.750026,2526.820666,2641.676150,-10796.415571
18563.752567,-3790.230998,-6470.192310,-7618.747158
18563.755107,2450.250342,3139.383251,-11102.696864
18563.757647,114.855485,191.425808,-10107.282662
18563.760187,-1071.984525,-2756.531635,-9054.440718
18563.762727,363.709035,344.566454,-10126.425243
18563.765267,421.136778,1052.841944,-10298.708470
18563.767807,-440.279358,-803.988394,-9571.290400
18563.770351,-478.564520,-899.701298,-9705.288466
18563.772893,1110.269686,2201.396792,-10662.417506
18563.775436,-325.423874,-1473.978722,-9456.434915
18563.777979,-593.420005,-1588.834206,-9437.292334
18563.780522,38.285162,555.134843,-10145.567824
18563.783065,612.562586,555.134843,-10336.993632
18563.785607,-593.420005,-2794.816797,-9284.151688
18563.788150,-76.570323,976.271621,-10202.995566
18563.790693,344.566454,401.994197,-10068.997501
18563.793236,-1014.556782,-2469.392923,-9341.579430
18563.795779,1914.258080,2277.967115,-10509.276859
18563.798321,-708.275490,-1378.265818,-9379.864592
18563.800864,-95.712904,-478.564520,-9954.142016
18563.803407,-899.701298,421.136778,-10030.712339
18563.805950,1129.412267,-2718.246474,-9379.864592
18563.808493,842.273555,6967.899411,-11447.263318
18563.811035,-3005.385186,-9915.856854,-7542.176835
18563.813578,-2105.683888,-650.847747,-9896.714274
18563.816121,5072.783912,12289.536874,-13284.951075
18563.818664,-5245.067139,-13591.232368,-4670.789715
18563.821206,650.847747,7503.891674,-12327.822035
18563.823749,3407.379382,4862.215523,-11887.542677
18563.826292,-4134.797453,-8614.161360,-7044.469734
18563.828835,2009.970984,6393.621987,-12059.825904
18563.831378,-287.138712,1895.115499,-10126.425243
18563.833920,-1359.123237,-3196.810994,-8556.733618
18563.836463,-76.570323,2756.531635,-10853.843314
18563.839006,-344.566454,1531.406464,-10490.134278
18563.841549,-248.853550,-1091.127106,-9647.860723
18563.844092,-861.416136,-708.275490,-9571.290400
18563.846634,-0.000000,918.843878,-10011.569758
18563.849177,-727.418070,803.988394,-10030.712339
18563.851720,-210.568389,-95.712904,-9762.716208
18563.854263,-153.140646,497.707101,-9934.999435
18563.856806,-172.283227,1588.834206,-10145.567824
18563.859348,-803.988394,1282.552914,-9801.001370
18563.861891,114.855485,114.855485,-9705.288466
18563.864434,401.994197,1550.549045,-10336.993632
18563.866977,-1263.410333,306.281293,-9533.005238
18563.869519,-727.418070,-1550.549045,-9475.577496
18563.872048,344.566454,3790.230998,-10892.128475
18563.874576,-803.988394,-3101.098090,-8920.442653
18563.877105,823.130974,957.129040,-9973.284597
18563.879633,-1799.402595,765.703232,-9724.431046
18563.882162,-19.142581,-3062.812928,-9513.862658
18563.884690,3349.951640,8863.014910,-12270.394293
18563.887218,-4613.361973,-13610.374949,-5857.629725
18563.889747,1091.127106,7063.612315,-12787.243974
18563.892275,3675.375514,2660.818731,-10815.558152
18563.894804,-5800.201982,-11581.261384,-5915.057467
18563.897332,3790.230998,10222.138147,-13725.230434
18563.899861,1339.980656,-1971.685822,-9360.722011
18563.902389,-3828.516160,-5283.352301,-8097.311678
18563.904917,3598.805190,5934.200048,-11906.685258
18563.907446,-593.420005,-1761.117434,-11006.983960
18563.909974,-1225.125171,-3962.514226,-8690.731683
18563.912503,95.712904,-153.140646,-10011.569758
18563.915031,669.990328,1914.258080,-10700.702667
18563.917559,-880.558717,-1263.410333,-9437.292334
18563.920088,-0.000000,-746.560651,-9973.284597
18563.922616,1339.980656,2029.113565,-10662.417506
18563.925145,-535.992262,-1359.123237,-9552.147819
18563.927673,-669.990328,-1148.554848,-9513.862658
18563.930202,516.849682,937.986459,-10470.991698
18563.932730,-555.134843,-1378.265818,-9820.143950
18563.935258,-1129.412267,-1627.119368,-9360.722011
18563.937787,229.710970,1454.836141,-10279.565890
18563.940315,1282.552914,344.566454,-10509.276859
18563.942844,421.136778,803.988394,-10030.712339
18563.945372,-746.560651,-2909.672282,-9092.725880
18563.947900,727.418070,3885.943902,-11121.839445
18563.950429,-918.843878,-3235.096155,-9073.583299
18563.952957,1627.119368,880.558717,-10317.851051
18563.955486,-1627.119368,2182.254211,-10126.425243
18563.958014,-2641.676150,-6355.336826,-8327.022648
18563.960543,4479.363907,12863.814298,-13686.945272
18563.963071,-3771.088418,-9992.427178,-6259.623922
18563.965599,-1627.119368,4689.932296,-11236.694930
18563.968128,5206.781978,7657.032320,-12002.398162
18563.970656,-5838.487144,-10643.274925,-5953.342629
18563.973189,-2124.826469,-3330.809059,-9016.155557
18563.975722,3062.812928,8307.880067,-13246.665914
18563.978255,-2947.957443,-3905.086483,-8173.882002
18563.980788,-1359.123237,-114.855485,-9590.432981
18563.983321,1244.267752,4536.791650,-11964.113000
18563.985854,-861.416136,-1359.123237,-8824.729749
18563.988387,-421.136778,-325.423874,-9820.143950
18563.990920,-478.564520,880.558717,-10068.997501
18563.993453,-306.281293,1359.123237,-10241.280728
18563.995986,-210.568389,-995.414202,-9437.292334
18563.998518,-612.562586,612.562586,-9877.571693
18564.001051,-593.420005,1531.406464,-10336.993632
18564.003584,-727.418070,1933.400661,-10107.282662
18564.006117,133.998066,631.705166,-9686.145885
18564.008650,-325.423874,-76.570323,-9820.143950
18564.011183,-650.847747,1359.123237,-10202.995566
18564.013716,133.998066,1205.982590,-10011.569758
18564.016249,-765.703232,-976.271621,-9341.579430
18564.018782,-114.855485,1225.125171,-10279.565890
18564.021315,-842.273555,1071.984525,-10068.997501
18564.023848,1722.832272,-497.707101,-9724.431046
18564.026381,-937.986459,3637.090352,-10451.849117
18564.028914,-2660.818731,-7197.610381,-8078.169098
18564.031446,4575.076811,10547.562021,-13323.236237
18564.033979,-2009.970984,-9111.868461,-10815.558152
18564.036512,-6144.768437,-14414.363342,-5704.489078
18564.039045,3101.098090,13725.230434,-14567.503989
18564.041578,976.271621,-4823.930362,-8097.311678
18564.044111,-5015.356170,-6623.332957,-7771.887805
18564.046644,4211.367776,8499.305875,-12691.531070
18564.049177,-1339.980656,-3196.810994,-8633.303941
18564.051710,-1186.840010,-3751.945837,-8863.014910
18564.054246,2297.109696,4402.793584,-11542.976222
18564.056783,-210.568389,-2220.539373,-9303.294269
18564.059320,-880.558717,-2526.820666,-9226.723946
18564.061856,1091.127106,2852.244539,-10643.274925
18564.064393,-497.707101,-746.560651,-9418.149754
18564.066930,-459.421939,-1933.400661,-9322.436850
18564.069466,1148.554848,842.273555,-10164.710405
18564.072003,57.427742,-746.560651,-9762.716208
18564.074540,-421.136778,-1014.556782,-9858.429112
18564.077076,976.271621,-114.855485,-10183.852986
18564.079613,-1512.263883,-1531.406464,-9475.577496
18564.082149,-325.423874,421.136778,-9934.999435
18564.084686,2029.113565,-114.855485,-10241.280728
18564.087223,-363.709035,-440.279358,-9705.288466
18564.089759,-229.710970,-1627.119368,-9628.718142
18564.092296,172.283227,3503.092286,-10853.843314
18564.094833,76.570323,-4173.082614,-8901.300072
18564.097369,937.986459,3866.801322,-10375.278794
18564.099906,-1473.978722,2086.541307,-9915.856854
18564.102443,-2565.105827,-7063.612315,-8097.311678
18564.104979,4651.647134,13342.378818,-13897.513661
18564.107516,-3407.379382,-8729.016845,-6546.762634
18564.110052,-2239.681954,2660.818731,-10681.560086
18564.112589,5168.496816,9188.438784,-12423.534939
18564.115126,-5589.633594,-10394.421374,-6163.911018
18564.117662,-1091.127106,4938.785846,-11466.405899
18564.120199,1033.699363,4019.941968,-11026.126541
18564.122736,-2775.674216,-7216.752962,-7369.893608
18564.125272,861.416136,5034.498750,-11179.267187
18564.127809,1186.840010,2488.535504,-10030.712339
18564.130346,-708.275490,-2967.100024,-8652.446522
18564.132882,-478.564520,-612.562586,-9686.145885
18564.135419,-1110.269686,1033.699363,-10202.995566
18564.137955,-421.136778,555.134843,-10164.710405
18564.140492,842.273555,593.420005,-9896.714274
18564.143029,-708.275490,-363.709035,-9513.862658
18564.145565,-1914.258080,976.271621,-9973.284597
18564.148102,267.996131,3426.521963,-10509.276859
18564.150639,-76.570323,-1914.258080,-9054.440718
18564.153175,95.712904,1148.554848,-10298.708470
18564.155715,-803.988394,2718.246474,-10432.706536
18564.158256,-1818.545176,-3177.668413,-8977.870395
18564.160796,650.847747,3924.229064,-10853.843314
18564.163336,918.843878,1205.982590,-10279.565890
18564.165876,-440.279358,803.988394,-9915.856854
18564.168416,-2507.678085,-2699.103893,-8767.302006
18564.170956,3388.236802,3924.229064,-11389.835576
18564.173497,153.140646,2718.246474,-10317.851051
18564.176037,-4823.930362,-12174.681389,-6221.338760
18564.178577,5072.783912,13916.656242,-14778.072378
18564.181117,133.998066,-9016.155557,-7389.036189
18564.183657,-5187.639397,-4364.508422,-8652.446522
18564.186197,5972.485210,11600.403965,-13820.943338
18564.188738,-1378.265818,-8537.591037,-7063.612315
18564.191278,-1378.265818,-689.132909,-9973.284597
18564.193818,3215.953574,7561.319416,-12366.107197
18564.196358,229.710970,95.712904,-9934.999435
18564.198898,-2967.100024,-5781.059402,-8135.596840
18564.201439,1378.265818,3483.949706,-11313.265253
18564.203979,593.420005,497.707101,-9954.142016
18564.206519,-1531.406464,-2813.959378,-8805.587168
18564.209059,497.707101,1665.404530,-10624.132344
18564.211599,708.275490,937.986459,-10432.706536
18564.214139,-210.568389,-2239.681954,-9265.009107
18564.216680,1282.552914,-574.277424,-9801.001370
18564.219220,95.712904,0.000000,-10432.706536
18564.221760,-1627.119368,-861.416136,-9724.431046
18564.224300,-669.990328,-76.570323,-9705.288466
18564.226840,1071.984525,-1129.412267,-9896.714274
18564.229380,1703.689691,2431.107762,-10796.415571
18564.231921,-631.705166,-3196.810994,-9035.298138
18564.234461,-133.998066,1856.830338,-10413.563955
18564.237001,-746.560651,-803.988394,-9667.003304
18564.239541,1378.265818,153.140646,-10202.995566
18564.242081,-1665.404530,1990.828403,-10011.569758
18564.244621,-2641.676150,-6585.047795,-8365.307810
18564.247162,4383.651003,12806.386555,-13706.087853
18564.249702,-2947.957443,-8786.444587,-6546.762634
18564.252242,-2507.678085,2947.957443,-10777.272990
18564.254782,4900.500685,8977.870395,-12385.249778
18564.257325,-5417.350366,-10585.847182,-8441.878133
18564.259869,-2699.103893,-4555.934230,-8709.874264
18564.262412,3732.803256,8748.159426,-12748.958813
18564.264955,-3541.377448,-3885.943902,-8193.024582
18564.267498,-1473.978722,-574.277424,-9647.860723
18564.270042,2143.969050,5455.635528,-12021.540742
18564.272585,-689.132909,-2009.970984,-8384.450390
18564.275128,153.140646,114.855485,-9877.571693
18564.277671,-937.986459,1397.408398,-10222.138147
18564.280215,-1512.263883,-497.707101,-9647.860723
18564.282758,784.845813,1186.840010,-10107.282662
18564.285301,-248.853550,478.564520,-9705.288466
18564.287845,-2201.396792,440.279358,-9743.573627
18564.290388,306.281293,2067.398726,-10298.708470
18564.292931,995.414202,1416.550979,-10164.710405
18564.295474,-1856.830338,-1665.404530,-9111.868461
18564.298018,382.851616,2488.535504,-10700.702667
18564.300561,-287.138712,1550.549045,-10126.425243
18564.303104,-1205.982590,-3158.525832,-8652.446522
18564.305647,-401.994197,4479.363907,-10930.413637
18564.308191,1301.695494,-2297.109696,-9418.149754
18564.310734,133.998066,4173.082614,-10662.417506
18564.313277,-3101.098090,-7197.610381,-7733.602643
18564.315820,3139.383251,7274.180704,-12557.533005
18564.318364,1914.258080,-784.845813,-9533.005238
18564.320907,-5513.063270,-11619.546546,-6623.332957
18564.323450,-976.271621,7274.180704,-12672.388490
18564.325993,4115.654872,4000.799387,-10892.128475
18564.328537,-5359.922624,-11102.696864,-6278.766502
18564.331080,2545.963246,6431.907149,-12404.392358
18564.333623,631.705166,2392.822600,-10394.421374
18564.336167,-3675.375514,-6833.901346,-7752.745224
18564.338710,2679.961312,3847.658741,-11466.405899
18564.341253,957.129040,172.283227,-10107.282662
18564.343796,-2354.537438,-3885.943902,-8824.729749
18564.346340,497.707101,1818.545176,-10585.847182
18564.348883,555.134843,1263.410333,-10183.852986
18564.351426,153.140646,-995.414202,-9705.288466
18564.353969,765.703232,-727.418070,-9456.434915
18564.356513,535.992262,-1416.550979,-9781.858789
18564.359058,-574.277424,191.425808,-10279.565890
18564.361604,-612.562586,-287.138712,-9801.001370
18564.364150,-95.712904,-555.134843,-9743.573627
18564.366696,325.423874,-1052.841944,-9801.001370
18564.369241,1435.693560,1799.402595,-10585.847182
18564.371787,-38.285162,-2029.113565,-9303.294269
18564.374333,-229.710970,746.560651,-10145.567824
18564.376878,-1320.838075,-516.849682,-9667.003304
18564.379424,1569.691626,-765.703232,-9973.284597
18564.381970,-363.709035,4498.506488,-10777.272990
18564.384516,-3694.518094,-9188.438784,-7427.321350
18564.387061,-421.136778,4134.797453,-11083.554283
18564.389607,4039.084549,8193.024582,-11753.544611
18564.392153,-6221.338760,-12098.111066,-5149.354235
18564.394699,2603.390989,10394.421374,-13304.093656
18564.397244,1052.841944,746.560651,-10375.278794
18564.399790,-3943.371645,-7465.606512,-7465.606512
18564.402336,3292.523898,8595.018779,-12653.245909
18564.404882,-1971.685822,-1646.261949,-9092.725880
18564.407427,-1952.543242,-2699.103893,-8977.870395
18564.409973,1684.547110,5685.346498,-11715.259450
18564.412519,-899.701298,-861.416136,-9226.723946
18564.415064,95.712904,-1263.410333,-9552.147819
18564.417610,-478.564520,2086.541307,-10317.851051
18564.420156,-1397.408398,861.416136,-9973.284597
18564.422702,-1665.404530,57.427742,-9724.431046
18564.425247,440.279358,2048.256146,-10222.138147
18564.427793,-382.851616,535.992262,-9705.288466
18564.430339,-325.423874,191.425808,-9858.429112
18564.432885,-133.998066,1550.549045,-10164.710405
18564.435430,344.566454,555.134843,-9992.427178
18564.437976,-1244.267752,-172.283227,-9647.860723
18564.440522,-631.705166,1014.556782,-9954.142016
18564.443068,-516.849682,344.566454,-9915.856854
18564.445613,1703.689691,1952.543242,-10490.134278
18564.448159,-2029.113565,-1014.556782,-9399.007173
18564.450705,-2775.674216,-7791.030386,-7637.889739
18564.453250,4000.799387,9820.143950,-13150.953010
18564.455796,-172.283227,-5551.348432,-8097.311678
18564.458342,-4058.227130,-6604.190376,-8499.305875
18564.460890,5474.778109,12212.966550,-14012.369146
18564.463437,-3005.385186,-10241.280728,-6068.198114
18564.465985,-1856.830338,344.566454,-10547.562021
18564.468533,4192.225195,6221.338760,-11906.685258
18564.471080,-3235.096155,-6393.621987,-7599.604578
18564.473628,1531.406464,842.273555,-10336.993632
18564.476176,1933.400661,3675.375514,-11217.552349
18564.478723,-2392.822600,-5168.496816,-8250.452325
18564.481271,-1856.830338,-3005.385186,-9073.583299
18564.483819,784.845813,2584.248408,-10700.702667
18564.486366,38.285162,-325.423874,-9705.288466
18564.488914,-153.140646,-1205.982590,-9647.860723
18564.491462,995.414202,401.994197,-10107.282662
18564.494010,-0.000000,-765.703232,-9954.142016
18564.496557,-1301.695494,-1301.695494,-9667.003304
18564.499105,-229.710970,95.712904,-10011.569758
18564.501653,421.136778,535.992262,-10298.708470
18564.504200,-1148.554848,-2431.107762,-9150.153622
18564.506748,708.275490,727.418070,-10183.852986
18564.509296,401.994197,861.416136,-10107.282662
18564.511843,-325.423874,-2718.246474,-9073.583299
18564.514391,-1282.552914,2622.533570,-10394.421374
18564.516939,-1359.123237,-4268.795518,-8786.444587
18564.519486,2756.531635,7293.323285,-12136.396227
18564.522034,-2182.254211,-4115.654872,-8135.596840
18564.524582,-3311.666478,-3101.098090,-9054.440718
18564.527130,4613.361973,13533.804626,-13591.232368
18564.529677,-4268.795518,-11734.402030,-5723.631659
18564.532225,325.423874,4307.080680,-11389.835576
18564.534773,4153.940034,7580.461997,-12040.683323
18564.537320,-5225.924558,-8920.442653,-6546.762634
18564.539868,746.560651,5455.635528,-11657.831707
18564.542416,325.423874,2756.531635,-10528.419440
18564.544963,-2411.965181,-4957.928427,-8518.448456
18564.547511,-1933.400661,306.281293,-9801.001370
18564.550059,1110.269686,3235.096155,-10853.843314
18564.552606,-1052.841944,-976.271621,-9533.005238
18564.555154,325.423874,765.703232,-10107.282662
18564.557702,-899.701298,-19.142581,-9571.290400
18564.560249,-1607.976787,1282.552914,-10164.710405
18564.562782,421.136778,1875.972918,-10222.138147
18564.565315,-535.992262,-1263.410333,-9226.723946
18564.567847,19.142581,1761.117434,-10260.423309
18564.570380,-401.994197,2048.256146,-10088.140082
18564.572913,-1837.687757,-3043.670347,-8939.585234
18564.575446,114.855485,3905.086483,-10834.700733
18564.577978,363.709035,1856.830338,-10394.421374
18564.580511,325.423874,306.281293,-9973.284597
18564.583044,-2258.824534,-1435.693560,-9322.436850
18564.585576,1722.832272,727.418070,-10490.134278
18564.588109,1607.976787,5895.914886,-11217.552349
18564.590642,-4977.071008,-13208.380752,-5647.061336
18564.593174,3062.812928,10758.130410,-13897.513661
18564.595707,2526.820666,-2871.387120,-8939.585234
18564.598240,-5819.344563,-9131.011042,-6853.043926
18564.600772,5359.922624,12155.538808,-14088.939469
18564.603305,555.134843,-5053.641331,-8403.592971
18564.605838,-3445.664544,-4957.928427,-8422.735552
18564.608370,3483.949706,8135.596840,-11160.124606
18564.610903,1014.556782,2967.100024,-10853.843314
18564.613436,-3235.096155,-6546.762634,-7944.171032
18564.615968,823.130974,1799.402595,-10930.413637
18564.618501,1378.265818,2316.252277,-10585.847182
18564.621034,-918.843878,-3235.096155,-8767.302006
18564.623566,497.707101,-248.853550,-9896.714274
18564.626099,1320.838075,1397.408398,-10604.989763
18564.628632,-191.425808,-2297.109696,-9169.296203
18564.631164,-76.570323,-1052.841944,-9513.862658
18564.633697,-57.427742,1359.123237,-10451.849117
18564.636230,95.712904,-1607.976787,-9743.573627
18564.638762,-574.277424,-593.420005,-9513.862658
18564.641295,153.140646,-2239.681954,-9418.149754
18564.643828,-57.427742,2947.957443,-10949.556218
18564.646360,612.562586,-2890.529701,-9284.151688
18564.648893,-95.712904,2488.535504,-10413.563955
18564.651426,-2967.100024,-3081.955509,-8748.159426
18564.653958,1282.552914,4230.510357,-11332.407834
18564.656491,-344.566454,1244.267752,-9877.571693
18564.659024,-4594.219392,-7963.313613,-7369.893608
18564.661556,3885.943902,14356.935600,-14414.363342
18564.664093,-440.279358,-7255.038123,-7255.038123
18564.666630,-2277.967115,-1952.543242,-9628.718142
18564.669166,4268.795518,10853.843314,-13131.810429
18564.671703,-3732.803256,-6929.614250,-7101.897477
18564.674239,-1684.547110,-6910.471669,-7752.745224
18564.676776,2947.957443,7044.469734,-12174.681389
18564.679312,-1205.982590,-344.566454,-9265.009107
18564.681849,-1359.123237,-2277.967115,-9131.011042
18564.684386,382.851616,3292.523898,-10662.417506
18564.686922,287.138712,593.420005,-9896.714274
18564.689459,-1091.127106,-1071.984525,-9265.009107
18564.691995,-401.994197,861.416136,-9896.714274
18564.694532,-765.703232,2909.672282,-10528.419440
18564.697068,-784.845813,-1186.840010,-9494.720077
18564.699605,248.853550,746.560651,-9992.427178
18564.702142,-612.562586,3158.525832,-10336.993632
18564.704678,-1320.838075,-1780.260014,-9379.864592
18564.707215,-1129.412267,1225.125171,-10164.710405
18564.709751,1454.836141,612.562586,-10011.569758
18564.712288,-2105.683888,1320.838075,-9743.573627
18564.714825,-1129.412267,-3196.810994,-9035.298138
18564.717361,3617.947771,6891.329088,-12174.681389
18564.719898,-2488.535504,-5991.627790,-7886.743290
18564.722434,-535.992262,-1550.549045,-9934.999435
18564.724971,5379.065205,10088.140082,-12959.527202
18564.727507,-4709.074877,-15275.779478,-4881.358104
18564.730044,-267.996131,7197.610381,-12557.533005
18564.732581,2852.244539,3388.236802,-10662.417506
18564.735117,-5206.781978,-10432.706536,-6604.190376
18564.737654,-1493.121302,-1684.547110,-9801.001370
18564.740190,2871.387120,7178.467800,-12270.394293
18564.742727,-2756.531635,-5455.635528,-8001.598774
18564.745263,-440.279358,-784.845813,-9954.142016
18564.747800,2316.252277,3732.803256,-11408.978157
18564.750337,-1071.984525,-3637.090352,-8786.444587
18564.752873,-248.853550,-267.996131,-9762.716208
18564.755410,669.990328,2029.113565,-10719.845248
18564.757946,-650.847747,-1569.691626,-9820.143950
18564.760483,38.285162,-1627.119368,-9533.005238
18564.763020,516.849682,1225.125171,-10260.423309
18564.765559,-612.562586,-555.134843,-9839.286531
18564.768099,-229.710970,-2718.246474,-9552.147819
18564.770639,880.558717,1454.836141,-10317.851051
18564.773179,363.709035,-1378.265818,-9628.718142
18564.775718,-555.134843,1301.695494,-10222.138147
18564.778258,937.986459,-2239.681954,-9667.003304
18564.780798,1416.550979,3445.664544,-10834.700733
18564.783337,-4173.082614,-4077.369710,-8135.596840
18564.785877,650.847747,2143.969050,-10700.702667
18564.788417,1627.119368,6412.764568,-11504.691061
18564.790956,-6029.912952,-12117.253646,-5972.485210
18564.793496,3062.812928,13935.798822,-14127.224630
18564.796036,2335.394858,-2450.250342,-9035.298138
18564.798575,-4039.084549,-7063.612315,-8039.883936
18564.801115,-248.853550,5857.629725,-11370.692995
18564.803655,1569.691626,4804.787781,-11849.257515
18564.806194,-3158.525832,-8135.596840,-6891.329088
18564.808734,1780.260014,5436.492947,-11370.692995
18564.811274,-57.427742,2316.252277,-10509.276859
18564.813813,-1780.260014,-4287.938099,-8269.594906
18564.816353,-114.855485,3924.229064,-11026.126541
18564.818893,133.998066,803.988394,-9934.999435
18564.821432,-2105.683888,-1971.685822,-8863.014910
18564.823972,1014.556782,3043.670347,-10547.562021
18564.826512,-363.709035,976.271621,-10011.569758
18564.829052,-1244.267752,-1110.269686,-9609.575562
18564.831591,-1148.554848,1493.121302,-9973.284597
18564.834131,918.843878,1780.260014,-10145.567824
18564.836671,-899.701298,38.285162,-9896.714274
18564.839210,-191.425808,-153.140646,-9762.716208
18564.841750,-957.129040,1052.841944,-10068.997501
18564.844290,2277.967115,1454.836141,-10298.708470
18564.846829,-2373.680019,650.847747,-9628.718142
18564.849369,-1512.263883,-5800.201982,-8690.731683
18564.851909,4709.074877,11638.689126,-13361.521398
18564.854448,-3043.670347,-12729.816232,-5991.627790
18564.856988,-1378.265818,1741.974853,-11160.124606
18564.859528,5666.203917,8709.874264,-12978.669782
18564.862067,-6049.055533,-13859.228499,-5283.352301
18564.864607,-3713.660675,-4957.928427,-8480.163294
18564.867150,5685.346498,9360.722011,-13131.810429
18564.869692,-1646.261949,-6221.338760,-7848.458128
18564.872235,-1110.269686,-2584.248408,-9207.581365
18564.874778,2852.244539,6757.331022,-12136.396227
18564.877321,-2182.254211,-4977.071008,-8441.878133
18564.879863,-287.138712,-1703.689691,-9667.003304
18564.882406,2584.248408,4881.358104,-11313.265253
18564.884949,-1512.263883,-4536.791650,-8441.878133
18564.887491,38.285162,-516.849682,-9954.142016
18564.890034,1914.258080,2565.105827,-11006.983960
18564.892577,-2584.248408,-3694.518094,-8652.446522
18564.895119,-1301.695494,1110.269686,-9322.436850
18564.897662,2469.392923,669.990328,-10681.560086
18564.900205,-363.709035,-114.855485,-10068.997501
18564.902747,-650.847747,-2450.250342,-9169.296203
18564.905290,325.423874,2986.242605,-10777.272990
18564.907833,440.279358,-2852.244539,-9494.720077
18564.910375,1320.838075,3330.809059,-10834.700733
18564.912918,-3962.514226,-3771.088418,-8327.022648
18564.915461,57.427742,2086.541307,-10528.419440
18564.918003,1818.545176,6948.756830,-11696.116869
18564.920546,-5953.342629,-12691.531070,-5857.629725
18564.923089,2871.387120,14127.224630,-14222.937534
18564.925632,2239.681954,-2105.683888,-9513.862658
18564.928174,-5991.627790,-11753.544611,-5857.629725
18564.930717,-267.996131,6049.055533,-11638.689126
18564.933260,1703.689691,4594.219392,-11849.257515
18564.935802,-3541.377448,-7523.034254,-7063.612315
18564.938345,1971.685822,5187.639397,-11274.980091
18564.940888,-153.140646,2239.681954,-10528.419440
18564.943430,-1550.549045,-4287.938099,-8097.311678
18564.945973,497.707101,4211.367776,-11083.554283
18564.948516,133.998066,1397.408398,-10088.140082
18564.951058,-2813.959378,-3388.236802,-8518.448456
18564.953601,1684.547110,4460.221326,-10872.985894
18564.956144,-38.285162,191.425808,-9743.573627
18564.958686,-4287.938099,-1703.689691,-8997.012976
18564.961229,-746.560651,3369.094221,-10451.849117
18564.963772,210.568389,-38.285162,-9667.003304
18564.966314,-1339.980656,267.996131,-9762.716208
18564.968859,1263.410333,497.707101,-10011.569758
18564.971404,-1971.685822,1225.125171,-9858.429112
18564.973949,-1301.695494,-3158.525832,-9035.298138
18564.976494,3560.520029,7523.034254,-12232.109131
18564.979039,-2756.531635,-7121.040058,-7752.745224
18564.981584,-421.136778,-344.566454,-10432.706536
18564.984129,5417.350366,9284.151688,-12691.531070
18564.986674,-4823.930362,-15275.779478,-4747.360038
18564.989219,19.142581,8307.880067,-12959.527202
18564.991764,4977.071008,11140.982026,-13591.232368
18564.994309,-2354.537438,-8939.585234,-7063.612315
18564.996854,-593.420005,-650.847747,-10279.565890
18564.999399,2699.103893,6546.762634,-12078.968485
18565.001944,-3101.098090,-6163.911018,-7733.602643
18565.004489,382.851616,153.140646,-10107.282662
18565.007034,1454.836141,3349.951640,-11160.124606
18565.009579,-1263.410333,-3962.514226,-8709.874264
18565.012124,1052.841944,401.994197,-10164.710405
18565.014669,1091.127106,1148.554848,-10432.706536
18565.017214,-1741.974853,-2220.539373,-9571.290400
18565.019759,38.285162,306.281293,-9992.427178
18565.022304,306.281293,-38.285162,-10011.569758
18565.024849,765.703232,-2086.541307,-9762.716208
18565.027394,-344.566454,1033.699363,-10317.851051
18565.029939,-401.994197,-2316.252277,-9284.151688
18565.032484,-708.275490,1933.400661,-10490.134278
18565.035029,1722.832272,-1091.127106,-9915.856854
18565.037574,-191.425808,1741.974853,-10413.563955
18565.040119,-3254.238736,-4441.078746,-8384.450390
18565.042664,2163.111630,6489.334891,-11791.829773
18565.045209,-976.271621,-38.285162,-9226.723946
18565.047754,-4957.928427,-7637.889739,-7484.749093
18565.050299,3809.373579,14529.218827,-14414.363342
18565.052844,-1052.841944,-8250.452325,-6661.618118
18565.055389,-4785.645200,-9896.714274,-6508.477472
18565.057934,1990.828403,10260.423309,-13208.380752
18565.060479,-1531.406464,-401.994197,-9686.145885
18565.063024,-2277.967115,-6087.340694,-7867.600709
18565.065569,3637.090352,8307.880067,-12538.390424
18565.068114,-2067.398726,-2507.678085,-8671.589102
18565.070661,-746.560651,-2086.541307,-9073.583299
18565.073209,1052.841944,5627.918755,-11408.978157
18565.075756,-2354.537438,-2143.969050,-8843.872330
18565.078303,-1205.982590,325.423874,-9839.286531
18565.080850,1531.406464,3177.668413,-10509.276859
18565.083398,-1110.269686,-1225.125171,-9245.866526
18565.085945,-478.564520,957.129040,-9513.862658
18565.088492,306.281293,3311.666478,-10509.276859
18565.091039,-708.275490,-650.847747,-9552.147819
18565.093587,-1186.840010,497.707101,-9858.429112
18565.096134,612.562586,976.271621,-10241.280728
18565.098681,-248.853550,1454.836141,-10107.282662
18565.101228,-3407.379382,-3579.662610,-8652.446522
18565.103776,3254.238736,3713.660675,-11447.263318
18565.106323,918.843878,2737.389054,-10470.991698
18565.108870,-4632.504554,-12059.825904,-6221.338760
18565.111418,4766.502619,13016.954944,-14299.507858
18565.113965,631.705166,-7523.034254,-7848.458128
18565.116512,-5398.207786,-5130.211654,-8441.878133
18565.119059,2967.100024,8346.165229,-13112.667848
18565.121607,2794.816797,1110.269686,-10432.706536
18565.124154,-4134.797453,-8039.883936,-7293.323285
18565.126701,2718.246474,5915.057467,-12002.398162
18565.129248,-765.703232,-95.712904,-9609.575562
18565.131796,-2641.676150,-4977.071008,-8575.876198
18565.134343,1856.830338,3962.514226,-11466.405899
18565.136890,191.425808,-1339.980656,-9571.290400
18565.139437,-574.277424,-1895.115499,-9437.292334
18565.141985,1607.976787,1301.695494,-10528.419440
18565.144532,-1397.408398,-1205.982590,-9724.431046
18565.147079,-497.707101,-516.849682,-9781.858789
18565.149626,1493.121302,-191.425808,-10068.997501
18565.152174,-382.851616,-1359.123237,-9743.573627
18565.154721,-842.273555,-803.988394,-9781.858789
18565.157268,172.283227,1435.693560,-10298.708470
18565.159815,114.855485,-1856.830338,-9360.722011
18565.162363,-1665.404530,708.275490,-10011.569758
18565.164910,995.414202,-1971.685822,-9705.288466
18565.167457,2392.822600,7159.325219,-11504.691061
18565.170004,-4421.936165,-8977.870395,-6814.758765
18565.172553,267.996131,7733.602643,-12270.394293
18565.175102,2871.387120,3847.658741,-10662.417506
18565.177651,-5474.778109,-9934.999435,-6374.479406
18565.180200,3005.385186,11255.837510,-13648.660110
18565.182749,3694.518094,8135.596840,-12308.679454
18565.185298,-6163.911018,-8920.442653,-6661.618118
18565.187847,535.992262,6183.053598,-11925.827838
18565.190396,823.130974,2545.963246,-11179.267187
18565.192945,-1703.689691,-5742.774240,-7905.885870
18565.195494,1339.980656,5608.776174,-11408.978157
18565.198043,-1244.267752,-287.138712,-9628.718142
18565.200591,-2105.683888,-1971.685822,-9111.868461
18565.203140,1110.269686,4594.219392,-11217.552349
18565.205689,-1129.412267,-1531.406464,-9111.868461
18565.208238,-995.414202,-133.998066,-9647.860723
18565.210787,1646.261949,4039.084549,-10872.985894
18565.213336,229.710970,-650.847747,-10107.282662
18565.215885,-1952.543242,-2411.965181,-8901.300072
18565.218434,459.421939,3407.379382,-10624.132344
18565.220983,-497.707101,-497.707101,-9801.001370
18565.223532,210.568389,1167.697429,-9954.142016
18565.226081,-2833.101958,-2029.113565,-9092.725880
18565.228630,2124.826469,1205.982590,-10624.132344
18565.231179,1741.974853,5111.069074,-11026.126541
18565.233727,-4785.645200,-13112.667848,-5800.201982
18565.236276,3675.375514,11791.829773,-14012.369146
18565.238825,1665.404530,-4613.361973,-8231.309744
18565.241374,-5819.344563,-7465.606512,-7618.747158
18565.243923,5321.637462,12212.966550,-14012.369146
18565.246472,3598.805190,2833.101958,-11140.982026
18565.249021,-4536.791650,-8824.729749,-7025.327154
18565.251570,2239.681954,5149.354235,-11830.114934
18565.254119,-248.853550,1014.556782,-10030.712339
18565.256668,-2986.242605,-5053.641331,-8327.022648
18565.259217,1818.545176,3407.379382,-11160.124606
18565.261766,-114.855485,-478.564520,-9628.718142
18565.264315,-937.986459,-2890.529701,-9226.723946
18565.266863,2239.681954,2469.392923,-10834.700733
18565.269412,-1052.841944,-1684.547110,-9552.147819
18565.271961,-1378.265818,-1531.406464,-9590.432981
18565.274512,2431.107762,842.273555,-10585.847182
18565.277062,-842.273555,-1684.547110,-10470.991698
18565.279613,-1454.836141,-3771.088418,-9016.155557
18565.282163,478.564520,3081.955509,-10719.845248
18565.284714,976.271621,-1914.258080,-9667.003304
18565.287264,784.845813,2641.676150,-10585.847182
18565.289815,-3866.801322,-3790.230998,-8403.592971
18565.292366,765.703232,3158.525832,-10892.128475
18565.294916,995.414202,4862.215523,-10987.841379
18565.297467,-5608.776174,-11083.554283,-6393.621987
18565.300017,3043.670347,13954.941403,-14318.650438
18565.302568,1167.697429,-3981.656806,-8882.157491
18565.305118,-2239.681954,-5379.065205,-8595.018779
18565.307669,4096.512291,12385.249778,-13055.240106
18565.310219,401.994197,2201.396792,-10681.560086
18565.312770,-3426.521963,-6565.905214,-7599.604578
18565.315320,2431.107762,6699.903280,-11868.400096
18565.317871,-1186.840010,-631.705166,-10030.712339
18565.320421,-918.843878,-3120.240670,-8537.591037
18565.322972,1454.836141,4804.787781,-11064.411702
18565.325522,-1761.117434,-382.851616,-9552.147819
18565.328073,-2009.970984,-1282.552914,-9418.149754
18565.330623,1933.400661,3962.514226,-10758.130410
18565.333174,-842.273555,-612.562586,-9360.722011
18565.335724,-1627.119368,957.129040,-9896.714274
18565.338275,727.418070,2450.250342,-10585.847182
18565.340826,-976.271621,-478.564520,-10088.140082
18565.343376,-574.277424,-1761.117434,-9341.579430
18565.345927,-76.570323,3847.658741,-10528.419440
18565.348477,-2833.101958,-4957.928427,-8537.591037
18565.351028,3464.807125,5513.063270,-11810.972354
18565.353578,-287.138712,-1493.121302,-9245.866526
18565.356129,-2871.387120,-7580.461997,-8135.596840
18565.358679,5819.344563,13418.949141,-14376.078181
18565.361230,-2813.959378,-13284.951075,-5704.489078
18565.363780,-2584.248408,1780.260014,-10777.272990
18565.366331,3637.090352,8461.020714,-12308.679454
18565.368881,-4517.649069,-12021.540742,-6259.623922
18565.371432,2411.965181,4000.799387,-11734.402030
18565.373982,3445.664544,7216.752962,-12174.681389
18565.376534,-1761.117434,-3407.379382,-8729.016845
18565.379086,-1627.119368,-2871.387120,-9150.153622
18565.381637,1952.543242,4517.649069,-11447.263318
18565.384189,-842.273555,-2507.678085,-9073.583299
18565.386740,267.996131,-2431.107762,-9322.436850
18565.389292,2373.680019,2928.814862,-11064.411702
18565.391843,-1665.404530,-2469.392923,-9379.864592
18565.394395,-421.136778,-1110.269686,-9667.003304
18565.396947,2067.398726,325.423874,-10470.991698
18565.399498,-574.277424,-1033.699363,-9609.575562
18565.402050,-344.566454,-1359.123237,-9609.575562
18565.404601,-19.142581,1799.402595,-10470.991698
18565.407153,-267.996131,-1952.543242,-9628.718142
18565.409705,2794.816797,3254.238736,-10911.271056
18565.412256,-3541.377448,-1875.972918,-8901.300072
18565.414808,-1627.119368,-2622.533570,-9245.866526
18565.417359,3579.662610,11925.827838,-13495.519464
18565.419911,-4689.932296,-12806.386555,-5455.635528
18565.422463,-57.427742,8537.591037,-12519.247843
18565.425014,4345.365842,4766.502619,-11294.122672
18565.427566,-4900.500685,-10892.128475,-6183.053598
18565.430117,1914.258080,10853.843314,-13227.523333
18565.432669,-1818.545176,-899.701298,-9781.858789
18565.435220,-2469.392923,-4689.932296,-8269.594906
18565.437772,708.275490,3388.236802,-11198.409768
18565.440324,1761.117434,3215.953574,-10930.413637
18565.442875,-2737.389054,-3464.807125,-8614.161360
18565.445427,210.568389,1761.117434,-10336.993632
18565.447978,191.425808,3426.521963,-10758.130410
18565.450530,-2584.248408,-2163.111630,-8939.585234
18565.453082,114.855485,1129.412267,-9992.427178
18565.455633,191.425808,3598.805190,-10547.562021
18565.458185,-1167.697429,-1359.123237,-9379.864592
18565.460736,-172.283227,1339.980656,-10317.851051
18565.463288,-0.000000,1684.547110,-10068.997501
18565.465839,-1971.685822,-1856.830338,-9226.723946
18565.468391,2124.826469,3866.801322,-10949.556218
18565.470943,-344.566454,3981.656806,-10643.274925
18565.473494,-3483.949706,-9437.292334,-7389.036189
18565.476046,4938.785846,11140.982026,-13629.517530
18565.478599,153.140646,-7312.465866,-7465.606512
18565.481151,-4498.506488,-4919.643266,-8882.157491
18565.483704,5398.207786,11906.685258,-13859.228499
18565.486257,-3445.664544,-10432.706536,-6183.053598
18565.488809,516.849682,1665.404530,-10892.128475
18565.491362,4173.082614,5819.344563,-12136.396227
18565.493915,-3369.094221,-8614.161360,-7255.038123
18565.496468,880.558717,2699.103893,-10987.841379
18565.499020,1052.841944,3196.810994,-10796.415571
18565.501573,-248.853550,-1301.695494,-9552.147819
18565.504126,-708.275490,-2813.959378,-9035.298138
18565.506679,1416.550979,2507.678085,-10796.415571
18565.509231,-114.855485,-765.703232,-9896.714274
18565.511784,-1186.840010,-2354.537438,-9322.436850
18565.514337,1033.699363,1282.552914,-10585.847182
18565.516890,-287.138712,-1856.830338,-9724.431046
18565.519442,-727.418070,-191.425808,-9743.573627
18565.521995,459.421939,-516.849682,-9896.714274
18565.524548,-1148.554848,535.992262,-10183.852986
18565.527100,1378.265818,-1282.552914,-9724.431046
18565.529653,-248.853550,2431.107762,-10413.563955
18565.532206,-2469.392923,-4919.643266,-8441.878133
18565.534759,-153.140646,2258.824534,-10585.847182
18565.537311,1875.972918,7063.612315,-11542.976222
18565.539864,-5436.492947,-12021.540742,-6010.770371
18565.542417,2163.111630,12806.386555,-13935.798822
18565.544970,2258.824534,-1148.554848,-9877.571693
18565.547522,-2794.816797,-7389.036189,-7752.745224
18565.550075,2909.672282,12117.253646,-13074.382686
18565.552628,-3905.086483,-4709.074877,-8020.741355
18565.555180,-1110.269686,-1301.695494,-9456.434915
18565.557733,3235.096155,6125.625856,-11772.687192
18565.560286,-2297.109696,-3560.520029,-8614.161360
18565.562839,689.132909,287.138712,-9973.284597
18565.565391,401.994197,2718.246474,-10547.562021
18565.567944,-1627.119368,631.705166,-9724.431046
18565.570497,-1320.838075,459.421939,-9934.999435
18565.573050,1110.269686,1722.832272,-10126.425243
18565.575602,-1225.125171,593.420005,-9571.290400
18565.578155,114.855485,803.988394,-10088.140082
18565.580709,-0.000000,1990.828403,-10394.421374
18565.583262,-363.709035,-1071.984525,-9399.007173
18565.585816,-1741.974853,1263.410333,-9973.284597
18565.588369,1856.830338,1148.554848,-10432.706536
18565.590923,-1493.121302,1588.834206,-10107.282662
18565.593476,-1933.400661,-7178.467800,-8059.026517
18565.596030,5072.783912,10509.276859,-13457.234302
18565.598583,3885.943902,3388.236802,-10911.271056
18565.601137,-6355.336826,-13284.951075,-5876.772306
18565.603690,2967.100024,11983.255581,-14127.224630
18565.606244,95.712904,-2947.957443,-8499.305875
18565.608797,-3637.090352,-7465.606512,-7752.745224
18565.611351,5187.639397,8403.592971,-12978.669782
18565.613904,-114.855485,-4785.645200,-8365.307810
18565.616458,-2488.535504,-2431.107762,-8997.012976
18565.619011,1493.121302,4613.361973,-11466.405899
18565.621565,-823.130974,-2029.113565,-9360.722011
18565.624118,363.709035,-1378.265818,-9513.862658
18565.626672,861.416136,1205.982590,-10394.421374
18565.629225,497.707101,-1014.556782,-10049.854920
18565.631779,-574.277424,-1110.269686,-9954.142016
18565.634332,1110.269686,-478.564520,-9992.427178
18565.636886,-1378.265818,-1914.258080,-9341.579430
18565.639439,57.427742,631.705166,-10183.852986
18565.641993,516.849682,-38.285162,-10030.712339
18565.644546,421.136778,-1416.550979,-9609.575562
18565.647100,-746.560651,-210.568389,-9858.429112
18565.649653,2297.109696,669.990328,-10183.852986
18565.652207,-1531.406464,2890.529701,-10126.425243
18565.654760,-3522.234867,-7044.469734,-7848.458128
18565.657314,3828.516160,12806.386555,-13801.800757
18565.659867,-708.275490,-6336.194245,-7350.751027
18565.662421,-5436.492947,-11102.696864,-6087.340694
18565.664974,1780.260014,10432.706536,-13533.804626
18565.667528,-421.136778,-1339.980656,-9513.862658
18565.670081,-3885.943902,-5225.924558,-7925.028451
18565.672635,2775.674216,9705.288466,-12653.245909
18565.675188,-2029.113565,-3675.375514,-8882.157491
18565.677742,-248.853550,-1359.123237,-9781.858789
18565.680295,1435.693560,4747.360038,-11332.407834
18565.682849,-1780.260014,-1588.834206,-9207.581365
18565.685403,-593.420005,57.427742,-9628.718142
18565.687957,-95.712904,2450.250342,-10375.278794
18565.690511,-1416.550979,191.425808,-9686.145885
18565.693065,-153.140646,1473.978722,-9801.001370
18565.695618,1033.699363,1110.269686,-10030.712339
18565.698172,-153.140646,287.138712,-9992.427178
18565.700726,-593.420005,957.129040,-9954.142016
18565.703280,-1454.836141,-38.285162,-9571.290400
18565.705834,1569.691626,1837.687757,-10490.134278
18565.708388,-1244.267752,918.843878,-9781.858789
18565.710941,-1339.980656,-5857.629725,-8652.446522
18565.713495,4613.361973,10126.425243,-12997.812363
18565.716049,-3254.238736,-11447.263318,-6508.477472
18565.718603,-1493.121302,1799.402595,-11102.696864
18565.721157,5015.356170,7159.325219,-12174.681389
18565.723711,-5379.065205,-11925.827838,-5857.629725
18565.726264,-1971.685822,-3120.240670,-9360.722011
18565.728818,5398.207786,7695.317482,-12768.101394
18565.731372,-1837.687757,-7484.749093,-7599.604578
18565.733926,-1301.695494,516.849682,-10107.282662
18565.736480,1493.121302,3675.375514,-11217.552349
18565.739033,-1435.693560,-2392.822600,-9131.011042
18565.741587,555.134843,-1339.980656,-9513.862658
18565.744141,593.420005,1818.545176,-10700.702667
18565.746695,-38.285162,-880.558717,-9915.856854
18565.749249,-0.000000,-1550.549045,-9571.290400
18565.751803,382.851616,-1033.699363,-10049.854920
18565.754356,-1110.269686,19.142581,-10088.140082
18565.756910,-440.279358,-650.847747,-9667.003304
18565.759464,-689.132909,-823.130974,-9724.431046
18565.762018,1780.260014,363.709035,-10336.993632
18565.764572,-1435.693560,-210.568389,-9628.718142
18565.767126,-38.285162,-3292.523898,-9207.581365
18565.769679,2813.959378,9877.571693,-12346.964616
18565.772233,-5225.924558,-9533.005238,-6585.047795
18565.774787,-267.996131,6183.053598,-11542.976222
18565.777341,4115.654872,5972.485210,-11255.837510
18565.779895,-5781.059402,-11006.983960,-5991.627790
18565.782448,1952.543242,9934.999435,-13342.378818
18565.785003,-574.277424,-1091.127106,-9686.145885
18565.787558,-3656.232933,-4996.213589,-8135.596840
18565.790112,421.136778,4938.785846,-11294.122672
18565.792666,1895.115499,2526.820666,-10681.560086
18565.795221,-2641.676150,-3962.514226,-8365.307810
18565.797775,382.851616,1646.261949,-10336.993632
18565.800330,-650.847747,1895.115499,-10317.851051
18565.802884,-593.420005,-153.140646,-9628.718142
18565.805438,-516.849682,650.847747,-9743.573627
18565.807993,-937.986459,1837.687757,-10183.852986
18565.810547,-248.853550,2182.254211,-10183.852986
18565.813101,114.855485,-1052.841944,-9475.577496
18565.815656,-344.566454,937.986459,-10030.712339
18565.818210,382.851616,1990.828403,-10413.563955
18565.820765,-2641.676150,-421.136778,-9226.723946
18565.823319,-2699.103893,-5513.063270,-8212.167163
18565.825873,4613.361973,8078.169098,-12519.247843
18565.828428,-1627.119368,-5225.924558,-8403.592971
18565.830982,-1665.404530,-5359.922624,-8997.012976
18565.833536,6412.764568,12787.243974,-14069.796888
18565.836091,-4728.217458,-14471.791085,-4900.500685
18565.838645,-1627.119368,3924.229064,-11332.407834
18565.841200,3311.666478,7293.323285,-11830.114934
18565.843754,-4402.793584,-12327.822035,-6183.053598
18565.846308,3560.520029,5398.207786,-12308.679454
18565.848863,2277.967115,1263.410333,-10356.136213
18565.851417,-4441.078746,-5570.491013,-7695.317482
18565.853971,-1473.978722,-1473.978722,-9399.007173
18565.856526,784.845813,2852.244539,-10719.845248
18565.859080,19.142581,-287.138712,-9934.999435
18565.861635,861.416136,-2201.396792,-9303.294269
18565.864189,153.140646,-555.134843,-9954.142016
18565.866743,-267.996131,-421.136778,-10356.136213
18565.869298,-1052.841944,-1225.125171,-9628.718142
18565.871852,-344.566454,-1301.695494,-9245.866526
18565.874406,1033.699363,1741.974853,-10624.132344
18565.876961,459.421939,-497.707101,-9858.429112
18565.879515,-363.709035,-3637.090352,-9207.581365
18565.882070,3407.379382,5781.059402,-11696.116869
18565.884624,-4383.651003,-2928.814862,-8173.882002
18565.887179,-5570.491013,-11294.122672,-6565.905214
18565.889733,3215.953574,14069.796888,-13840.085918
18565.892288,1378.265818,-2718.246474,-8633.303941
18565.894842,-4862.215523,-6776.473603,-7695.317482
18565.897397,5225.924558,12940.384621,-13686.945272
18565.899951,-4804.787781,-7905.885870,-6814.758765
18565.902506,-861.416136,0.000000,-9571.290400
18565.905060,2756.531635,8671.589102,-11983.255581
18565.907615,-3081.955509,-6049.055533,-7274.180704
18565.910169,957.129040,1914.258080,-10700.702667
18565.912724,1205.982590,3407.379382,-10930.413637
18565.915278,-2699.103893,-2794.816797,-8671.589102
18565.917833,-1320.838075,1722.832272,-9399.007173
18565.920387,172.283227,3043.670347,-10528.419440
18565.922942,-1129.412267,1052.841944,-9877.571693
18565.925496,-516.849682,746.560651,-9647.860723
18565.928051,1014.556782,1014.556782,-10222.138147
18565.930606,-861.416136,210.568389,-9992.427178
18565.933160,-172.283227,421.136778,-9973.284597
18565.935715,-1684.547110,2469.392923,-9973.284597
18565.938269,-1780.260014,-3809.373579,-8805.587168
18565.940824,3694.518094,7503.891674,-12232.109131
18565.943378,-2258.824534,-8154.739421,-7503.891674
18565.945933,880.558717,382.851616,-10738.987829
18565.948487,4747.360038,7963.313613,-12404.392358
18565.951042,-1167.697429,-9437.292334,-7006.184573
18565.953596,-4153.940034,-2775.674216,-8997.012976
18565.956151,4421.936165,10700.702667,-13036.097525
18565.958705,-2813.959378,-9973.284597,-6872.186507
18565.961260,823.130974,574.277424,-10853.843314
18565.963814,2603.390989,4307.080680,-11447.263318
18565.966369,-2833.101958,-4670.789715,-8001.598774
18565.968924,-229.710970,478.564520,-9992.427178
18565.971478,210.568389,2124.826469,-10585.847182
18565.974033,-344.566454,-2009.970984,-9590.432981
18565.976587,1493.121302,-478.564520,-9896.714274
18565.979142,765.703232,-210.568389,-10183.852986
18565.981696,-899.701298,-2335.394858,-9724.431046
18565.984251,-937.986459,880.558717,-10107.282662
18565.986805,-114.855485,-861.416136,-9513.862658
18565.989360,-708.275490,-325.423874,-9896.714274
18565.991914,1818.545176,593.420005,-10470.991698
18565.994469,-1473.978722,-1244.267752,-9456.434915
18565.997023,-440.279358,-2833.101958,-9399.007173
18565.999577,2909.672282,10202.995566,-12691.531070
18566.002132,-5417.350366,-9667.003304,-6393.621987
18566.004686,-765.703232,5895.914886,-11294.122672
18566.007241,4307.080680,7408.178770,-11581.261384
18566.009795,-5570.491013,-12002.398162,-5436.492947
18566.012350,1339.980656,9667.003304,-13265.808494
18566.014904,3215.953574,9169.296203,-12614.960747
18566.017459,-5321.637462,-6776.473603,-6833.901346
18566.020013,382.851616,3847.658741,-10834.700733
18566.022567,1914.258080,2833.101958,-10796.415571
18566.025122,-1205.982590,-2909.672282,-8958.727814
18566.027676,363.709035,1014.556782,-10126.425243
18566.030231,-1741.974853,1473.978722,-10164.710405
18566.032785,-1110.269686,746.560651,-10011.569758
18566.035340,38.285162,1741.974853,-10011.569758
18566.037894,-880.558717,1110.269686,-9667.003304
18566.040449,19.142581,1167.697429,-10145.567824
18566.043003,1071.984525,1607.976787,-10451.849117
18566.045557,-823.130974,-1493.121302,-9379.864592
18566.048112,-2909.672282,-19.142581,-9552.147819
18566.050666,1780.260014,2258.824534,-10528.419440
18566.053221,-708.275490,2852.244539,-10336.993632
18566.055775,-2852.244539,-9533.005238,-7255.038123
18566.058330,5627.918755,11064.411702,-13763.515595
18566.060884,-172.283227,-7771.887805,-7599.604578
18566.063438,-5034.498750,-5685.346498,-8709.874264
18566.065993,5876.772306,13170.095590,-14242.080115
18566.068547,-3483.949706,-10758.130410,-5915.057467
18566.071102,344.566454,1186.840010,-10547.562021
18566.073656,4632.504554,7350.751027,-12614.960747
18566.076211,-3598.805190,-10030.712339,-6929.614250
18566.078765,-3847.658741,-4364.508422,-8384.450390
18566.081320,995.414202,4555.934230,-11274.980091
18566.083874,-727.418070,-248.853550,-9801.001370
18566.086428,1665.404530,-1531.406464,-9533.005238
18566.088983,842.273555,-248.853550,-9858.429112
18566.091538,-1014.556782,-1569.691626,-9915.856854
18566.094092,784.845813,325.423874,-10566.704602
18566.096647,-995.414202,-1875.972918,-9379.864592
18566.099201,-1799.402595,-2048.256146,-9073.583299
18566.101756,1531.406464,3981.656806,-11083.554283
18566.104311,1071.984525,-2431.107762,-9360.722011
18566.106865,-1856.830338,-2909.672282,-9284.151688
18566.109420,3407.379382,3713.660675,-11313.265253
18566.111975,2813.959378,9169.296203,-12423.534939
18566.114529,-5704.489078,-10164.710405,-6431.907149
18566.117084,-440.279358,7389.036189,-12136.396227
18566.119639,4498.506488,6144.768437,-11083.554283
18566.122193,-5723.631659,-11906.685258,-5455.635528
18566.124748,1339.980656,10222.138147,-13361.521398
18566.127302,-708.275490,-669.990328,-10317.851051
18566.129857,-3656.232933,-6278.766502,-7771.887805
18566.132412,2392.822600,9801.001370,-12595.818166
18566.134966,-861.416136,-2431.107762,-9111.868461
18566.137521,-1148.554848,-2756.531635,-8958.727814
18566.140076,1339.980656,3713.660675,-11064.411702
18566.142630,-478.564520,3062.812928,-10643.274925
18566.145185,-650.847747,-133.998066,-9590.432981
18566.147740,-1225.125171,153.140646,-9456.434915
18566.150294,421.136778,3713.660675,-10547.562021
18566.152849,382.851616,287.138712,-9781.858789
18566.155404,-631.705166,-1148.554848,-9437.292334
18566.157958,937.986459,2316.252277,-10719.845248
18566.160513,-2737.389054,344.566454,-9686.145885
18566.163067,-19.142581,-1416.550979,-9265.009107
18566.165622,995.414202,6546.762634,-11332.407834
18566.168177,-2813.959378,-9877.571693,-7178.467800
18566.170731,4077.369710,7752.745224,-12748.958813
18566.173286,1301.695494,-3675.375514,-9016.155557
18566.175841,-5647.061336,-13399.806560,-5379.065205
18566.178395,631.705166,7618.747158,-12634.103328
18566.180950,1875.972918,2086.541307,-9992.427178
18566.183505,-3388.236802,-8901.300072,-7063.612315
18566.186059,4364.508422,7006.184573,-12806.386555
18566.188614,516.849682,-2890.529701,-9111.868461
18566.191168,-3713.660675,-3579.662610,-8614.161360
18566.193723,995.414202,3675.375514,-11121.839445
18566.196277,-555.134843,-133.998066,-9762.716208
18566.198832,497.707101,-2067.398726,-9379.864592
18566.201386,1033.699363,401.994197,-10279.565890
18566.203941,306.281293,-1110.269686,-10088.140082
18566.206495,-1856.830338,-2124.826469,-9781.858789
18566.209050,-325.423874,555.134843,-10030.712339
18566.211604,593.420005,-363.709035,-9705.288466
18566.214159,-325.423874,-57.427742,-9724.431046
18566.216713,1627.119368,-1359.123237,-10030.712339
18566.219268,1531.406464,3005.385186,-10930.413637
18566.221822,-4938.785846,-5723.631659,-7791.030386
18566.224377,1148.554848,6010.770371,-11734.402030
18566.226931,114.855485,3407.379382,-10222.138147
18566.229486,-5034.498750,-9379.864592,-6661.618118
18566.232040,3675.375514,13533.804626,-14146.367211
18566.234595,133.998066,-4651.647134,-8154.739421
18566.237149,-1799.402595,-4249.652938,-9150.153622
18566.239703,937.986459,7523.034254,-12059.825904
18566.242258,-459.421939,2220.539373,-10088.140082
18566.244812,-2239.681954,-4689.932296,-7848.458128
18566.247367,1282.552914,4747.360038,-11389.835576
18566.249921,-593.420005,-248.853550,-9858.429112
18566.252476,-650.847747,-1225.125171,-9456.434915
18566.255030,306.281293,2411.965181,-10356.136213
18566.257585,-2335.394858,153.140646,-9628.718142
18566.260139,-1301.695494,2277.967115,-10088.140082
18566.262694,1741.974853,1703.689691,-9954.142016
18566.265248,-95.712904,-478.564520,-9552.147819
18566.267803,-382.851616,1627.119368,-10298.708470
18566.270357,-1473.978722,-440.279358,-9762.716208
18566.272912,1244.267752,899.701298,-10030.712339
18566.275466,-1397.408398,2105.683888,-9915.856854
18566.278021,-957.129040,-6431.907149,-8327.022648
18566.280576,4900.500685,9781.858789,-13093.525267
18566.283130,-2316.252277,-11102.696864,-6719.045861
18566.285685,-2909.672282,-76.570323,-10700.702667
18566.288239,5264.209720,8499.305875,-12634.103328
18566.290794,-5091.926493,-11753.544611,-5819.344563
18566.293349,2565.105827,6202.196179,-12098.111066
18566.295903,2794.816797,3024.527766,-10968.698798
18566.298458,-4498.506488,-9284.151688,-7121.040058
18566.301012,1186.840010,5072.783912,-11791.829773
18566.303567,1148.554848,4287.938099,-11313.265253
18566.306122,-1493.121302,-2392.822600,-9054.440718
18566.308676,1837.687757,287.138712,-9877.571693
18566.311231,765.703232,38.285162,-9973.284597
18566.313786,-918.843878,-2584.248408,-9571.290400
18566.316340,382.851616,-172.283227,-10317.851051
18566.318895,-57.427742,-114.855485,-10030.712339
18566.321449,-1320.838075,-2086.541307,-9265.009107
18566.324004,76.570323,1895.115499,-10260.423309
18566.326559,2029.113565,-1435.693560,-9762.716208
18566.329113,95.712904,1129.412267,-10356.136213
18566.331668,-2641.676150,-4728.217458,-8614.161360
18566.334222,2297.109696,8690.731683,-12461.820101
18566.336777,1646.261949,7618.747158,-11600.403965
18566.339332,-4804.787781,-11255.837510,-5934.200048
18566.341886,2239.681954,11562.118803,-13361.521398
18566.344441,2507.678085,-95.712904,-10317.851051
18566.346996,-3388.236802,-7867.600709,-7905.885870
18566.349550,2354.537438,10566.704602,-13227.523333
18566.352105,-2833.101958,-3215.953574,-8154.739421
18566.354659,-2124.826469,-1722.832272,-8882.157491
18566.357214,2813.959378,5857.629725,-11485.548480
18566.359769,-459.421939,-1665.404530,-9437.292334
18566.362323,-574.277424,-899.701298,-9494.720077
18566.364878,-1493.121302,1703.689691,-10202.995566
18566.367432,-1531.406464,2469.392923,-10317.851051
18566.369987,-459.421939,2469.392923,-10164.710405
18566.372542,-38.285162,-1761.117434,-8958.727814
18566.375096,382.851616,2258.824534,-10375.278794
18566.377651,535.992262,1780.260014,-10451.849117
18566.380205,-3349.951640,-2411.965181,-9035.298138
18566.382759,1473.978722,2029.113565,-10604.989763
18566.385313,95.712904,4957.928427,-10738.987829
18566.387868,-3617.947771,-10911.271056,-6278.766502
18566.390422,5666.203917,11026.126541,-13629.517530
18566.392976,459.421939,-6317.051664,-8154.739421
18566.395530,-5742.774240,-7676.174901,-8059.026517
18566.398085,5876.772306,12921.242040,-14280.365277
18566.400639,1550.549045,2469.392923,-10202.995566
18566.403193,-4345.365842,-10202.995566,-6470.192310
18566.405748,4843.072942,8001.598774,-12882.956878
18566.408302,1205.982590,-2220.539373,-9341.579430
18566.410856,-3809.373579,-4900.500685,-8441.878133
18566.413410,1263.410333,4000.799387,-11274.980091
18566.415965,-1225.125171,-401.994197,-9609.575562
18566.418519,803.988394,-1741.974853,-9475.577496
18566.421073,2009.970984,746.560651,-10183.852986
18566.423627,-114.855485,-2603.390989,-9705.288466
18566.426182,-2009.970984,-727.418070,-10011.569758
18566.428736,-95.712904,95.712904,-10107.282662
18566.431290,-497.707101,-1033.699363,-9915.856854
18566.433844,2067.398726,248.853550,-9973.284597
18566.436399,-1225.125171,-1741.974853,-9245.866526
18566.438953,1875.972918,-401.994197,-10260.423309
18566.441507,-516.849682,5972.485210,-11083.554283
18566.444062,-5072.783912,-9877.571693,-6814.758765
18566.446616,2775.674216,13055.240106,-13706.087853
18566.449170,1607.976787,-2124.826469,-8518.448456
18566.451724,-4287.938099,-5761.916821,-7925.028451
18566.454279,4594.219392,12270.394293,-13304.093656
18566.456833,-4479.363907,-7695.317482,-7561.319416
18566.459387,-1244.267752,-612.562586,-9743.573627
18566.461941,2833.101958,8441.878133,-12098.111066
18566.464496,-133.998066,-401.994197,-9456.434915
18566.467050,-1493.121302,-3369.094221,-8709.874264
18566.469604,1205.982590,3866.801322,-11140.982026
18566.472158,-1435.693560,-133.998066,-9724.431046
18566.474713,-1397.408398,-325.423874,-9494.720077
18566.477267,344.566454,3579.662610,-10624.132344
18566.479821,114.855485,478.564520,-9839.286531
18566.482374,-38.285162,287.138712,-9609.575562
18566.484928,593.420005,1856.830338,-10164.710405
18566.487482,-1761.117434,-1129.412267,-9647.860723
18566.490036,-133.998066,3139.383251,-10681.560086
18566.492589,-2890.529701,-2316.252277,-8958.727814
18566.495143,2431.107762,497.707101,-10413.563955
18566.497697,5340.780043,10604.989763,-13284.951075
18566.500251,-2431.107762,-11619.546546,-6451.049730
18566.502804,-2871.387120,-57.427742,-10738.987829
18566.505358,5130.211654,8958.727814,-12921.242040
18566.507912,-5111.069074,-12614.960747,-5666.203917
18566.510466,2852.244539,6661.618118,-12155.538808
18566.513019,2775.674216,3388.236802,-10930.413637
18566.515573,-4843.072942,-9360.722011,-6967.899411
18566.518127,1378.265818,5091.926493,-11772.687192
18566.520681,574.277424,440.279358,-10183.852986
18566.523234,-1378.265818,-3139.383251,-8901.300072
18566.525788,1033.699363,918.843878,-10260.423309
18566.528342,401.994197,-172.283227,-10049.854920
18566.530896,516.849682,-689.132909,-10279.565890
18566.533450,-1263.410333,-823.130974,-9705.288466
18566.536003,-1665.404530,-2392.822600,-9322.436850
18566.538557,440.279358,2316.252277,-10892.128475
18566.541111,1588.834206,-421.136778,-9743.573627
18566.543665,-957.129040,-4000.799387,-8767.302006
18566.546218,3732.803256,4957.928427,-11696.116869
18566.548772,-2928.814862,363.709035,-9322.436850
18566.551326,-4575.076811,-7523.034254,-7752.745224
18566.553880,4345.365842,16022.340130,-14644.074312
18566.556433,-1435.693560,-9054.440718,-6163.911018
18566.558987,-2239.681954,593.420005,-10030.712339
18566.561541,2392.822600,11600.403965,-13438.091722
18566.564095,-2354.537438,-2450.250342,-9801.001370
18566.566648,-2718.246474,-5723.631659,-8212.167163
18566.569202,3101.098090,9801.001370,-12729.816232
18566.571756,-1397.408398,-3215.953574,-8403.592971
18566.574310,-784.845813,-1646.261949,-9245.866526
18566.576863,1435.693560,4383.651003,-11255.837510
18566.579417,-1799.402595,-1225.125171,-9303.294269
18566.581971,-1301.695494,172.283227,-9571.290400
18566.584524,191.425808,3579.662610,-10604.989763
18566.587078,-325.423874,76.570323,-9762.716208
18566.589631,248.853550,229.710970,-9667.003304
18566.592185,1033.699363,2316.252277,-9992.427178
18566.594738,-2105.683888,650.847747,-9915.856854
18566.597292,133.998066,-535.992262,-9934.999435
18566.599845,-708.275490,4249.652938,-10604.989763
18566.602399,-2143.969050,-8920.442653,-7369.893608
18566.604952,5455.635528,10298.708470,-13284.951075
18566.607506,-229.710970,-8116.454259,-7676.174901
18566.610059,-4823.930362,-4900.500685,-9169.296203
18566.612613,5474.778109,12002.398162,-14031.511726
18566.615166,-3369.094221,-11121.839445,-6049.055533
18566.617720,1033.699363,2431.107762,-10796.415571
18566.620273,4058.227130,6738.188442,-12078.968485
18566.622827,-3943.371645,-9533.005238,-6987.041992
18566.625380,-3943.371645,-3962.514226,-8652.446522
18566.627934,516.849682,3522.234867,-11236.694930
18566.630487,-363.709035,-325.423874,-9934.999435
18566.633041,2182.254211,-1416.550979,-9533.005238
18566.635594,765.703232,-1378.265818,-9667.003304
18566.638148,-363.709035,-823.130974,-10202.995566
18566.640701,-95.712904,1493.121302,-10547.562021
18566.643255,-1014.556782,-2871.387120,-9169.296203
18566.645808,-1263.410333,114.855485,-10049.854920
18566.648362,2469.392923,1378.265818,-10528.419440
18566.650915,-1186.840010,-2048.256146,-9054.440718
18566.653469,-344.566454,-2641.676150,-9552.147819
18566.656022,3043.670347,10547.562021,-13304.093656
18566.658576,-1627.119368,-153.140646,-9073.583299
18566.661129,-4747.360038,-7791.030386,-7159.325219
18566.663683,5245.067139,15505.490448,-14682.359474
18566.666236,-1071.984525,-7791.030386,-6565.905214
18566.668790,-1512.263883,-2143.969050,-9494.720077
18566.671343,3330.809059,10011.569758,-12768.101394
18566.673897,-5781.059402,-7178.467800,-7657.032320
18566.676450,-708.275490,2182.254211,-10088.140082
18566.679004,2316.252277,5206.781978,-11332.407834
18566.681557,-1378.265818,-3847.658741,-8461.020714
18566.684110,229.710970,1320.838075,-10241.280728
18566.686663,-899.701298,2852.244539,-10585.847182
18566.689216,-1493.121302,2029.113565,-10279.565890
18566.691769,-516.849682,-363.709035,-9475.577496
18566.694322,1071.984525,957.129040,-9973.284597
18566.696875,-38.285162,2067.398726,-10107.282662
18566.699428,-1512.263883,-1301.695494,-9437.292334
18566.701981,-114.855485,3790.230998,-10815.558152
18566.704534,-2928.814862,-2660.818731,-9016.155557
18566.707087,2488.535504,1435.693560,-10700.702667
18566.709640,2086.541307,3656.232933,-10585.847182
18566.712193,-3713.660675,-11753.544611,-6374.479406
18566.714746,3139.383251,11389.835576,-13935.798822
18566.717299,-76.570323,-7140.182638,-7829.315547
18566.719852,-5225.924558,-5513.063270,-8365.307810
18566.722405,3311.666478,8748.159426,-13016.954944
18566.724958,1837.687757,727.418070,-10030.712339
18566.727511,-4421.936165,-8059.026517,-7312.465866
18566.730064,2641.676150,6087.340694,-12308.679454
18566.732617,-114.855485,-555.134843,-9877.571693
18566.735170,-2488.535504,-4173.082614,-8633.303941
18566.737723,1244.267752,2239.681954,-10834.700733
18566.740276,1397.408398,191.425808,-10336.993632
18566.742829,-382.851616,-4613.361973,-8805.587168
18566.745382,325.423874,1397.408398,-10413.563955
18566.747935,-612.562586,363.709035,-10164.710405
18566.750488,-2201.396792,-2909.672282,-9035.298138
18566.753041,1512.263883,1627.119368,-9762.716208
18566.755594,1071.984525,2967.100024,-10566.704602
18566.758147,-1627.119368,-6240.481341,-8173.882002
18566.760700,2775.674216,10356.136213,-12787.243974
18566.763253,-4249.652938,-5838.487144,-7465.606512
18566.765806,-2871.387120,593.420005,-9839.286531
18566.768359,5666.203917,10892.128475,-12825.529136
18566.770912,-3981.656806,-11217.552349,-5206.781978
18566.773465,229.710970,6010.770371,-11791.829773
18566.776018,1186.840010,3426.521963,-11160.124606
18566.778571,-4785.645200,-7465.606512,-7484.749093
18566.781124,1914.258080,7121.040058,-12174.681389
18566.783677,76.570323,363.709035,-9609.575562
18566.786230,-957.129040,-3177.668413,-8671.589102
18566.788782,267.996131,1454.836141,-10241.280728
18566.791334,-1339.980656,2029.113565,-10317.851051
18566.793886,-1990.828403,746.560651,-9705.288466
18566.796439,516.849682,1205.982590,-9992.427178
18566.798991,574.277424,669.990328,-9896.714274
18566.801543,-823.130974,784.845813,-9743.573627
18566.804096,-612.562586,267.996131,-9801.001370
18566.806648,325.423874,3062.812928,-10604.989763
18566.809200,-3541.377448,-2871.387120,-9016.155557
18566.811752,2239.681954,1091.127106,-10681.560086
18566.814305,2833.101958,4996.213589,-11064.411702
18566.816857,-3885.943902,-13227.523333,-5781.059402
18566.819409,-2794.816797,516.849682,-10853.843314
18566.821962,4613.361973,7657.032320,-12653.245909
18566.824514,-5091.926493,-11485.548480,-6087.340694
18566.827066,2450.250342,6183.053598,-12174.681389
18566.829618,2699.103893,3101.098090,-10777.272990
18566.832171,-3905.086483,-8480.163294,-7159.325219
18566.834723,1722.832272,4785.645200,-11772.687192
18566.837275,1071.984525,842.273555,-10356.136213
18566.839828,-2392.822600,-4134.797453,-8633.303941
18566.842380,765.703232,995.414202,-10394.421374
18566.844932,1225.125171,995.414202,-10528.419440
18566.847484,-957.129040,-4249.652938,-8863.014910
18566.850037,-1741.974853,-2239.681954,-9131.011042
18566.852589,1110.269686,1856.830338,-10815.558152
18566.855141,-593.420005,-229.710970,-10049.854920
18566.857693,765.703232,-3924.229064,-9360.722011
18566.860246,3081.955509,5570.491013,-11504.691061
18566.862798,-4441.078746,-5570.491013,-7618.747158
18566.865350,-114.855485,3847.658741,-11160.124606
18566.867903,631.705166,5895.914886,-11198.409768
18566.870455,-5302.494882,-10298.708470,-6489.334891
18566.873007,3158.525832,13036.097525,-13859.228499
18566.875559,1780.260014,-3005.385186,-9092.725880
18566.878112,-2756.531635,-4689.932296,-8786.444587
18566.880664,2431.107762,8920.442653,-12614.960747
18566.883216,-421.136778,2986.242605,-10490.134278
18566.885769,-2086.541307,-4996.213589,-8307.880067
18566.888320,1550.549045,4709.074877,-11217.552349
18566.890872,-631.705166,497.707101,-9858.429112
18566.893424,-1569.691626,-899.701298,-9456.434915
18566.895976,-114.855485,3349.951640,-10566.704602
18566.898528,-1205.982590,803.988394,-9858.429112
18566.901080,-727.418070,-133.998066,-9724.431046
18566.903632,823.130974,2143.969050,-10298.708470
18566.906183,133.998066,-153.140646,-9609.575562
18566.908735,-2163.111630,1684.547110,-9877.571693
18566.911287,-19.142581,-1091.127106,-9743.573627
18566.913839,3215.953574,5225.924558,-11753.544611
18566.916391,-1186.840010,-4670.789715,-8307.880067
18566.918943,-478.564520,-3560.520029,-9456.434915
18566.921495,5283.352301,9571.290400,-13170.095590
18566.924046,-4441.078746,-13610.374949,-5532.205851
18566.926598,-1244.267752,4211.367776,-11791.829773
18566.929150,2947.957443,5704.489078,-11332.407834
18566.931702,-3866.801322,-10049.854920,-6642.475538
18566.934254,4039.084549,5551.348432,-12021.540742
18566.936806,2124.826469,650.847747,-10011.569758
18566.939357,-4881.358104,-5953.342629,-7848.458128
18566.941909,1225.125171,2852.244539,-11179.267187
18566.944461,1033.699363,803.988394,-10356.136213
18566.947013,459.421939,-2335.394858,-9475.577496
18566.949565,-325.423874,-3522.234867,-9054.440718
18566.952117,1225.125171,2450.250342,-10738.987829
18566.954669,-727.418070,-1033.699363,-9839.286531
18566.957220,-2163.111630,-2488.535504,-9035.298138
18566.959772,1990.828403,937.986459,-10566.704602
18566.962324,38.285162,574.277424,-9896.714274
18566.964876,-1263.410333,-6183.053598,-8212.167163
18566.967428,3560.520029,11638.689126,-13342.378818
18566.969980,-4957.928427,-7025.327154,-7063.612315
18566.972532,-2756.531635,1339.980656,-9954.142016
18566.975083,5685.346498,10662.417506,-12902.099459
18566.977635,-4498.506488,-10911.271056,-8499.305875
18566.980187,-2488.535504,-4153.940034,-8920.442653
18566.982739,2833.101958,9437.292334,-12595.818166
18566.985291,-4900.500685,-5283.352301,-7771.887805
18566.987843,-2143.969050,210.568389,-9494.720077
18566.990394,3426.521963,5800.201982,-11638.689126
18566.992945,-1091.127106,-2737.389054,-8690.731683
18566.995496,-1359.123237,-574.277424,-9609.575562
18566.998047,-210.568389,5072.783912,-11026.126541
18567.000599,-1052.841944,76.570323,-9552.147819
18567.003150,-1225.125171,-1359.123237,-9169.296203
18567.005701,842.273555,3771.088418,-10872.985894
18567.008252,153.140646,114.855485,-9743.573627
18567.010803,-2239.681954,708.275490,-9513.862658
18567.013355,-1359.123237,-2584.248408,-9169.296203
18567.015906,2584.248408,7446.463931,-12193.823970
18567.018457,-2852.244539,-8231.309744,-7369.893608
18567.021008,1818.545176,650.847747,-10758.130410
18567.023559,5245.067139,6776.473603,-12212.966550
18567.026111,-5991.627790,-14203.794954,-5455.635528
18567.028662,1110.269686,7829.315547,-12882.956878
18567.031213,1818.545176,2258.824534,-10279.565890
18567.033764,-4115.654872,-9188.438784,-6853.043926
18567.036315,4977.071008,7637.889739,-12672.388490
18567.038867,842.273555,-2029.113565,-9207.581365
18567.041418,-4326.223261,-5034.498750,-8288.737486
18567.043969,19.142581,708.275490,-10222.138147
18567.046520,1416.550979,2373.680019,-10738.987829
18567.049071,-535.992262,-3885.943902,-8958.727814
18567.051622,267.996131,-1052.841944,-9781.858789
18567.054174,784.845813,1473.978722,-10547.562021
18567.056725,-995.414202,-1856.830338,-9552.147819
18567.059276,-689.132909,-287.138712,-9686.145885
18567.061827,1263.410333,-1110.269686,-10088.140082
18567.064378,574.277424,2335.394858,-10470.991698
18567.066930,-2507.678085,-6240.481341,-7771.887805
18567.069481,2603.390989,9054.440718,-12366.107197
18567.072032,-2699.103893,-1780.260014,-8480.163294
18567.074583,-5264.209720,-11351.550414,-6029.912952
18567.077134,1607.976787,10911.271056,-13016.954944
18567.079686,3771.088418,1646.261949,-10145.567824
18567.082237,-4096.512291,-7982.456194,-7580.461997
18567.084788,2316.252277,8863.014910,-12614.960747
18567.087339,-3464.807125,-1856.830338,-9054.440718
18567.089890,-2794.816797,-3158.525832,-8575.876198
18567.092441,3330.809059,6106.483275,-11791.829773
18567.094992,-440.279358,-880.558717,-9399.007173
18567.097543,-1741.974853,-1320.838075,-9207.581365
18567.100094,-133.998066,4441.078746,-10853.843314
18567.102645,-401.994197,995.414202,-9973.284597
18567.105196,-1071.984525,-1665.404530,-9226.723946
18567.107747,440.279358,1722.832272,-10068.997501
18567.110297,-382.851616,880.558717,-9915.856854
18567.112848,-555.134843,2086.541307,-10183.852986
18567.115399,-2660.818731,-1990.828403,-9265.009107
18567.117950,2794.816797,1339.980656,-10719.845248
18567.120501,1320.838075,3617.947771,-10624.132344
18567.123052,-4039.084549,-12480.962682,-6068.198114
18567.125603,3426.521963,11198.409768,-14146.367211
18567.128154,1052.841944,-5647.061336,-8365.307810
18567.130705,-6202.196179,-7752.745224,-7465.606512
18567.133255,4728.217458,11830.114934,-13706.087853
18567.135806,-1550.549045,-6431.907149,-7829.315547
18567.138357,-4326.223261,-2909.672282,-6967.899411
18567.140908,3254.238736,6049.055533,-11964.113000
18567.143459,555.134843,-287.138712,-10088.140082
18567.146010,-3273.381317,-4862.215523,-8422.735552
18567.148561,2335.394858,2622.533570,-11140.982026
18567.151112,497.707101,-1052.841944,-9973.284597
18567.153663,-1569.691626,-3292.523898,-9016.155557
18567.156213,1531.406464,1971.685822,-10624.132344
18567.158764,-1071.984525,-1416.550979,-9609.575562
18567.161315,248.853550,-784.845813,-9743.573627
18567.163866,-210.568389,-746.560651,-9705.288466
18567.166417,1971.685822,-746.560651,-9839.286531
18567.168968,-1186.840010,4594.219392,-10815.558152
18567.171519,-4402.793584,-7925.028451,-7006.184573
18567.174070,-1282.552914,5838.487144,-11542.976222
18567.176621,4689.932296,6757.331022,-11332.407834
18567.179171,-5417.350366,-10202.995566,-5895.914886
18567.181722,1895.115499,8499.305875,-12653.245909
18567.184273,76.570323,708.275490,-10183.852986
18567.186824,-3005.385186,-7006.184573,-7963.313613
18567.189375,2756.531635,8231.309744,-12385.249778
18567.191926,-1148.554848,-1167.697429,-9303.294269
18567.194476,-2143.969050,-2009.970984,-8977.870395
18567.197027,1473.978722,3541.377448,-10796.415571
18567.199577,-1148.554848,1454.836141,-9992.427178
18567.202128,-918.843878,-1167.697429,-9131.011042
18567.204678,-267.996131,650.847747,-9973.284597
18567.207229,133.998066,3196.810994,-10604.989763
18567.209779,-1473.978722,-2124.826469,-9092.725880
18567.212329,-401.994197,4153.940034,-10509.276859
18567.214880,-1320.838075,-3369.094221,-9016.155557
18567.217430,2124.826469,5149.354235,-11619.546546
18567.219981,-1378.265818,-4460.221326,-8499.305875
18567.222531,-210.568389,-2909.672282,-9609.575562
18567.225082,5455.635528,8824.729749,-12882.956878
18567.227632,-4843.072942,-13591.232368,-5474.778109
18567.230183,-306.281293,4804.787781,-12078.968485
18567.232733,2565.105827,4938.785846,-11102.696864
18567.235283,-1684.547110,-6776.473603,-7580.461997
18567.237834,38.285162,-1665.404530,-9609.575562
18567.240384,4287.938099,6374.479406,-12002.398162
18567.242935,-3464.807125,-6451.049730,-7905.885870
18567.245485,248.853550,-287.138712,-9896.714274
18567.248036,2507.678085,3426.521963,-11045.269122
18567.250586,-1493.121302,-5857.629725,-8518.448456
18567.253137,287.138712,593.420005,-10107.282662
18567.255687,2143.969050,2163.111630,-10738.987829
18567.258237,-3177.668413,-5015.356170,-8461.020714
18567.260788,1512.263883,2565.105827,-10758.130410
18567.263338,-287.138712,-1761.117434,-9418.149754
18567.265889,1033.699363,-1512.263883,-9705.288466
18567.268439,1282.552914,9303.294269,-12212.966550
18567.270990,-3866.801322,-7848.458128,-7121.040058
18567.273540,-401.994197,7331.608446,-12040.683323
18567.276091,4000.799387,4153.940034,-10432.706536
18567.278641,-5398.207786,-8422.735552,-6431.907149
18567.281191,2737.389054,9839.286531,-12902.099459
18567.283742,-1493.121302,-1837.687757,-9188.438784
18567.286292,-1837.687757,-5130.211654,-8403.592971
18567.288843,2756.531635,8135.596840,-12366.107197
18567.291393,-1914.258080,-2718.246474,-8805.587168
18567.293944,-1225.125171,-267.996131,-9552.147819
18567.296493,1225.125171,3483.949706,-10815.558152
18567.299043,-746.560651,2641.676150,-10164.710405
18567.301593,-1263.410333,-1263.410333,-9035.298138
18567.304143,133.998066,1799.402595,-10336.993632
18567.306692,-76.570323,2335.394858,-10356.136213
18567.309242,-2067.398726,-2488.535504,-9054.440718
18567.311792,459.421939,5168.496816,-10949.556218
18567.314342,-2182.254211,-3656.232933,-8767.302006
18567.316891,2526.820666,3062.812928,-11217.552349
18567.319441,267.996131,114.855485,-9724.431046
18567.321991,-2526.820666,-8441.878133,-7657.032320
18567.324541,5091.926493,11217.552349,-13667.802691
18567.327090,-2258.824534,-11064.411702,-6642.475538
18567.329640,-3235.096155,-1071.984525,-10107.282662
18567.332190,3847.658741,10356.136213,-13361.521398
18567.334740,-38.285162,-2488.535504,-8977.870395
18567.337289,-2182.254211,-5264.209720,-8422.735552
18567.339839,4153.940034,6929.614250,-12136.396227
18567.342389,-2086.541307,-4345.365842,-8729.016845
18567.344939,-1091.127106,-2947.957443,-9054.440718
18567.347488,3388.236802,4441.078746,-11562.118803
18567.350038,-1646.261949,-4977.071008,-8614.161360
18567.352588,-1186.840010,-1627.119368,-9513.862658
18567.355138,3503.092286,4402.793584,-11523.833642
18567.357687,-3120.240670,-4843.072942,-8346.165229
18567.360237,344.566454,-842.273555,-9877.571693
18567.362787,2335.394858,3885.943902,-12366.107197
18567.365337,-3196.810994,-6910.471669,-7503.891674
18567.367886,746.560651,5972.485210,-11562.118803
18567.370436,-363.709035,2277.967115,-9839.286531
18567.372986,-5417.350366,-6910.471669,-7637.889739
18567.375536,4670.789715,12748.958813,-13974.083984
18567.378085,-995.414202,-6451.049730,-7484.749093
18567.380635,-1933.400661,-880.558717,-9839.286531
18567.383185,2392.822600,7982.456194,-12212.966550
18567.385735,-4230.510357,-6259.623922,-7676.174901
18567.388284,-153.140646,2507.678085,-10432.706536
18567.390834,1512.263883,3407.379382,-10758.130410
18567.393384,-2067.398726,-2545.963246,-8843.872330
18567.395934,-1244.267752,-95.712904,-9513.862658
18567.398466,765.703232,3847.658741,-10738.987829
18567.400998,-957.129040,-57.427742,-9571.290400
18567.403531,-1550.549045,-459.421939,-9533.005238
18567.406063,2048.256146,3617.947771,-10892.128475
18567.408595,-2258.824534,-650.847747,-9188.438784
18567.411128,593.420005,-267.996131,-9647.860723
18567.413660,38.285162,6087.340694,-11274.980091
18567.416192,-3196.810994,-10509.276859,-7140.182638
18567.418725,4670.789715,9896.714274,-13246.665914
18567.421257,516.849682,-6757.331022,-7886.743290
18567.423789,-5015.356170,-5666.203917,-8901.300072
18567.426322,5493.920690,11006.983960,-13495.519464
18567.428854,1320.838075,-38.285162,-9571.290400
18567.431386,-3598.805190,-7791.030386,-7331.608446
18567.433918,4594.219392,8231.309744,-12672.388490
18567.436451,-229.710970,-3579.662610,-8939.585234
18567.438983,-2660.818731,-3981.656806,-8882.157491
18567.441515,3292.523898,5072.783912,-11830.114934
18567.444048,-1435.693560,-3005.385186,-8958.727814
18567.446580,-1110.269686,-3713.660675,-9111.868461
18567.449112,2890.529701,5072.783912,-11868.400096
18567.451645,-1033.699363,-4039.084549,-8805.587168
18567.454177,-2048.256146,-2584.248408,-9131.011042
18567.456709,3426.521963,5072.783912,-11657.831707
18567.459242,-995.414202,-114.855485,-9781.858789
18567.461774,-248.853550,-5991.627790,-8403.592971
18567.464306,3330.809059,11715.259450,-13380.663979
18567.466839,-4900.500685,-9858.429112,-6489.334891
18567.469371,-306.281293,7944.171032,-12078.968485
18567.471903,4307.080680,4919.643266,-10643.274925
18567.474436,-5532.205851,-9379.864592,-6144.768437
18567.476968,2450.250342,10126.425243,-13016.954944
18567.479500,-689.132909,-1665.404530,-9494.720077
18567.482033,-1856.830338,-4919.643266,-8537.591037
18567.484565,2048.256146,7465.606512,-12002.398162
18567.487097,-2163.111630,-2239.681954,-8997.012976
18567.489630,-899.701298,-19.142581,-9686.145885
18567.492162,918.843878,2718.246474,-10528.419440
18567.494694,306.281293,2029.113565,-10164.710405
18567.497226,-1512.263883,-995.414202,-9169.296203
18567.499761,-593.420005,1971.685822,-10279.565890
18567.502295,650.847747,2565.105827,-10470.991698
18567.504829,-2354.537438,-1780.260014,-9054.440718
18567.507364,2201.396792,2967.100024,-10738.987829
18567.509898,-1378.265818,2086.541307,-10241.280728
18567.512432,-1875.972918,-7637.889739,-7944.171032
18567.514967,4785.645200,10758.130410,-13189.238171
18567.517501,-2507.678085,-12270.394293,-6489.334891
18567.520035,-2450.250342,918.843878,-10892.128475
18567.522570,4555.934230,11715.259450,-14318.650438
18567.525104,-172.283227,-5379.065205,-7963.313613
18567.527638,-2660.818731,-3885.943902,-8633.303941
18567.530173,3675.375514,8403.592971,-12480.962682
18567.532707,-2067.398726,-6259.623922,-8039.883936
18567.535241,-57.427742,-1033.699363,-9934.999435
18567.537776,2833.101958,4307.080680,-11466.405899
18567.540310,-2584.248408,-4670.789715,-8480.163294
18567.542844,-76.570323,-937.986459,-9858.429112
18567.545379,2373.680019,3713.660675,-11523.833642
18567.547913,-1895.115499,-4996.213589,-8461.020714
18567.550447,-535.992262,-497.707101,-9858.429112
18567.552982,3043.670347,3656.232933,-11274.980091
18567.555516,-1761.117434,-1339.980656,-9341.579430
18567.558050,-516.849682,-5283.352301,-8595.018779
18567.560585,3713.660675,12021.540742,-13648.660110
18567.563119,-5264.209720,-9743.573627,-6431.907149
18567.565653,-689.132909,6259.623922,-11581.261384
18567.568188,4670.789715,7063.612315,-11428.120738
18567.570722,-5704.489078,-10604.989763,-5455.635528
18567.573256,1473.978722,9131.011042,-12729.816232
18567.575791,421.136778,421.136778,-10126.425243
18567.578325,-2431.107762,-6087.340694,-8212.167163
18567.580859,2297.109696,7676.174901,-12117.253646
18567.583394,-1665.404530,-1493.121302,-9245.866526
18567.585928,-2775.674216,-937.986459,-8863.014910
18567.588462,516.849682,2909.672282,-10413.563955
18567.590997,555.134843,1837.687757,-10126.425243
18567.593531,-1320.838075,-612.562586,-9226.723946
18567.596065,-344.566454,2201.396792,-10336.993632
18567.598600,535.992262,1071.984525,-10145.567824
18567.601136,-2124.826469,727.418070,-9590.432981
18567.603671,957.129040,-727.418070,-9590.432981
18567.606207,631.705166,5340.780043,-11236.694930
18567.608743,-3292.523898,-9667.003304,-7178.467800
18567.611279,3809.373579,7121.040058,-12614.960747
18567.613815,2201.396792,-2411.965181,-9418.149754
18567.616351,-5666.203917,-9284.151688,-7293.323285
18567.618887,-267.996131,4900.500685,-12002.398162
18567.621423,3120.240670,4307.080680,-11083.554283
18567.623958,-3579.662610,-9035.298138,-7063.612315
18567.626494,3694.518094,5570.491013,-11983.255581
18567.629030,1071.984525,210.568389,-9877.571693
18567.631566,-3617.947771,-5379.065205,-8288.737486
18567.634102,2699.103893,3407.379382,-11160.124606
18567.636638,191.425808,-1244.267752,-9667.003304
18567.639174,-1875.972918,-3617.947771,-9035.298138
18567.641710,1435.693560,2450.250342,-10949.556218
18567.644245,803.988394,-1301.695494,-9781.858789
18567.646781,-1818.545176,-2277.967115,-9111.868461
18567.649317,1665.404530,401.994197,-10547.562021
18567.651853,2143.969050,4594.219392,-11332.407834
18567.654389,-4651.647134,-5321.637462,-7637.889739
18567.656925,248.853550,3713.660675,-11121.839445
18567.659461,1378.265818,6546.762634,-11140.982026
18567.661996,-5283.352301,-10375.278794,-6374.479406
18567.664532,2431.107762,12270.394293,-13763.515595
18567.667068,2048.256146,-1071.984525,-9169.296203
18567.669604,-3503.092286,-5398.207786,-8135.596840
18567.672140,2239.681954,7886.743290,-12308.679454
18567.674676,-3579.662610,-2526.820666,-8748.159426
18567.677212,-765.703232,-1378.265818,-9226.723946
18567.679748,1875.972918,4766.502619,-11274.980091
18567.682283,-459.421939,382.851616,-9877.571693
18567.684819,-1780.260014,38.285162,-9552.147819
18567.687355,669.990328,3215.953574,-10528.419440
18567.689891,-1569.691626,-497.707101,-9418.149754
18567.692427,19.142581,2239.681954,-10470.991698
18567.694963,38.285162,344.566454,-9858.429112
18567.697499,306.281293,1512.263883,-10222.138147
18567.700035,-1895.115499,612.562586,-9858.429112
18567.702572,1052.841944,-2469.392923,-9801.001370
18567.705109,2469.392923,6355.336826,-11619.546546
18567.707646,-3675.375514,-12614.960747,-6355.336826
18567.710183,1091.127106,7216.752962,-12595.818166
18567.712720,2909.672282,-842.273555,-9456.434915
18567.715257,-3349.951640,-9801.001370,-6719.045861
18567.717794,76.570323,2373.680019,-10853.843314
18567.720331,2335.394858,5245.067139,-11408.978157
18567.722868,-2794.816797,-7063.612315,-7982.456194
18567.725405,2297.109696,2526.820666,-11083.554283
18567.727942,823.130974,842.273555,-10279.565890
18567.730479,-2469.392923,-3981.656806,-8843.872330
18567.733017,1435.693560,1646.261949,-10681.560086
18567.735554,248.853550,-746.560651,-10030.712339
18567.738091,-1148.554848,-2699.103893,-9226.723946
18567.740628,191.425808,1052.841944,-10394.421374
18567.743165,861.416136,-669.990328,-10030.712339
18567.745702,-1186.840010,765.703232,-10049.854920
18567.748239,-1990.828403,-4843.072942,-8480.163294
18567.750776,3196.810994,9647.860723,-12614.960747
18567.753313,-3139.383251,-4000.799387,-7848.458128
18567.755850,-3617.947771,-1665.404530,-9169.296203
18567.758387,5302.494882,12174.681389,-13438.091722
18567.760924,-3675.375514,-9590.432981,-6259.623922
18567.763461,-1550.549045,2660.818731,-10585.847182
18567.765999,1933.400661,6010.770371,-11562.118803
18567.768536,-3713.660675,-6221.338760,-7771.887805
18567.771073,1454.836141,3483.949706,-10853.843314
18567.773610,842.273555,3694.518094,-10758.130410
18567.776147,-3254.238736,-4096.512291,-8384.450390
18567.778684,-1320.838075,-650.847747,-9456.434915
18567.781221,1588.834206,5417.350366,-11121.839445
18567.783758,-1607.976787,-1971.685822,-8882.157491
18567.786295,-708.275490,1722.832272,-10241.280728
18567.788832,631.705166,1703.689691,-10222.138147
18567.791369,-440.279358,1071.984525,-9992.427178
18567.793906,-1761.117434,-1186.840010,-9322.436850
18567.796443,2277.967115,612.562586,-10566.704602
18567.798981,1359.123237,3885.943902,-10930.413637
18567.801518,-3866.801322,-12212.966550,-6451.049730
18567.804058,2699.103893,9647.860723,-13438.091722
18567.806596,1569.691626,-4115.654872,-8690.731683
18567.809134,-5704.489078,-7791.030386,-6336.194245
18567.811673,1359.123237,4326.223261,-11542.976222
18567.814211,1703.689691,4345.365842,-11026.126541
18567.816749,-3196.810994,-7140.182638,-7810.172966
18567.819288,2737.389054,3522.234867,-11332.407834
18567.821826,210.568389,287.138712,-10107.282662
18567.824364,-2488.535504,-4249.652938,-8882.157491
18567.826903,2124.826469,2584.248408,-11006.983960
18567.829441,-19.142581,-1646.261949,-9801.001370
18567.831980,-1301.695494,-2852.244539,-9265.009107
18567.834518,689.132909,2201.396792,-10643.274925
18567.837056,344.566454,-2182.254211,-9667.003304
18567.839595,-1550.549045,-421.136778,-9801.001370
18567.842133,-2603.390989,-3866.801322,-8556.733618
18567.844671,2009.970984,7101.897477,-11772.687192
18567.847210,-1971.685822,-153.140646,-9131.011042
18567.849748,-4307.080680,-5072.783912,-7810.172966
18567.852286,4632.504554,12729.816232,-13878.371080
18567.854825,-1550.549045,-6776.473603,-7255.038123
18567.857363,-2852.244539,-957.129040,-9533.005238
18567.859901,2584.248408,7542.176835,-12117.253646
18567.862440,-4287.938099,-5034.498750,-7867.600709
18567.864978,-57.427742,784.845813,-9992.427178
18567.867516,1990.828403,4977.071008,-11313.265253
18567.870055,-3273.381317,-3062.812928,-8652.446522
18567.872593,325.423874,1703.689691,-10107.282662
18567.875131,1378.265818,5130.211654,-11083.554283
18567.877670,-669.990328,191.425808,-9552.147819
18567.880208,-1244.267752,-689.132909,-9418.149754
18567.882746,535.992262,3062.812928,-10528.419440
18567.885285,803.988394,172.283227,-9839.286531
18567.887823,-1837.687757,918.843878,-9724.431046
18567.890362,-516.849682,-4900.500685,-8920.442653
18567.892900,4039.084549,8575.876198,-12672.388490
18567.895438,-2411.965181,-11676.974288,-6393.621987
18567.897977,-2009.970984,1205.982590,-11045.269122
18567.900515,5053.641331,6814.758765,-12423.534939
18567.903053,-5111.069074,-11523.833642,-6202.196179
18567.905593,-3005.385186,-4383.651003,-8480.163294
18567.908132,3771.088418,8020.741355,-12404.392358
18567.910671,-1607.976787,-5398.207786,-8461.020714
18567.913210,-172.283227,-1186.840010,-9705.288466
18567.915749,2431.107762,3924.229064,-11313.265253
18567.918289,-3215.953574,-4977.071008,-8633.303941
18567.920828,114.855485,689.132909,-10375.278794
18567.923367,1990.828403,1569.691626,-10777.272990
18567.925906,-1512.263883,-5149.354235,-8595.018779
18567.928446,1014.556782,3139.383251,-10834.700733
18567.930985,689.132909,-2737.389054,-9705.288466
18567.933524,229.710970,1435.693560,-10336.993632
18567.936063,-3388.236802,-1473.978722,-8805.587168
18567.938603,-2565.105827,-5742.774240,-8193.024582
18567.941142,3254.238736,12691.531070,-13572.089787
18567.943681,-1244.267752,-6527.620053,-7178.467800
18567.946220,-3062.812928,995.414202,-10260.423309
18567.948759,5187.639397,9456.434915,-12768.101394
18567.951299,-4115.654872,-7580.461997,-7063.612315
18567.953838,-612.562586,1359.123237,-10145.567824
18567.956377,650.847747,4919.643266,-11045.269122
18567.958916,-3024.527766,-4096.512291,-8441.878133
18567.961456,937.986459,1990.828403,-10356.136213
18567.963995,612.562586,3369.094221,-10758.130410
18567.966534,-2947.957443,-1952.543242,-8767.302006
18567.969073,-1684.547110,2258.824534,-9226.723946
18567.971613,535.992262,4689.932296,-10949.556218
18567.974152,-765.703232,-995.414202,-9552.147819
18567.976691,-1493.121302,1569.691626,-9781.858789
18567.979230,-1186.840010,-937.986459,-9590.432981
18567.981769,2890.529701,3522.234867,-11294.122672
18567.984309,-918.843878,-2431.107762,-9054.440718
18567.986848,-1856.830338,-6125.625856,-8518.448456
18567.989387,4689.932296,10279.565890,-13457.234302
18567.991926,-2297.109696,-11408.978157,-6240.481341
18567.994466,-2507.678085,76.570323,-10509.276859
18567.997005,3885.943902,7714.460062,-12327.822035
18567.999544,-2852.244539,-8231.309744,-7197.610381
18568.002083,-1837.687757,-5245.067139,-8384.450390
18568.004623,3235.096155,6546.762634,-11868.400096
18568.007163,-2086.541307,-4421.936165,-8652.446522
18568.009703,-229.710970,-2124.826469,-9494.720077
18568.012244,3330.809059,3694.518094,-11294.122672
18568.014784,-2392.822600,-5302.494882,-8595.018779
18568.017324,497.707101,-248.853550,-10241.280728
18568.019865,2124.826469,3158.525832,-10968.698798
18568.022405,-937.986459,-6259.623922,-8480.163294
18568.024945,650.847747,4919.643266,-11370.692995
18568.027486,-1722.832272,-4632.504554,-8480.163294
18568.030026,1378.265818,6106.483275,-11523.833642
18568.032566,-1225.125171,153.140646,-9150.153622
18568.035107,-4039.084549,-9341.579430,-6431.907149
18568.037647,516.849682,9265.009107,-12614.960747
18568.040187,2641.676150,1646.261949,-9877.571693
18568.042728,-3598.805190,-6451.049730,-7771.887805
18568.045268,1550.549045,6393.621987,-11964.113000
18568.047808,-2507.678085,-440.279358,-9475.577496
18568.050349,-957.129040,-2679.961312,-8843.872330
18568.052889,2048.256146,4326.223261,-11179.267187
18568.055429,-1607.976787,133.998066,-9801.001370
18568.057970,-1818.545176,-593.420005,-9360.722011
18568.060510,727.418070,3637.090352,-10585.847182
