#time,accel_x,accel_y,accel_z
23375.068287,-172.283227,440.279358,9647.860723
23375.070815,-153.140646,363.709035,9609.575562
23375.073342,-95.712904,440.279358,9513.862658
23375.075870,-95.712904,382.851616,9513.862658
23375.078398,-191.425808,516.849682,9590.432981
23375.080926,-382.851616,421.136778,9647.860723
23375.083453,-287.138712,401.994197,9533.005238
23375.085981,-344.566454,-267.996131,9360.722011
23375.088509,-306.281293,267.996131,9667.003304
23375.091036,-248.853550,784.845813,9724.431046
23375.093564,-153.140646,-650.847747,9379.864592
23375.096092,-593.420005,38.285162,9667.003304
23375.098619,-880.558717,-114.855485,9686.145885
23375.101147,76.570323,-2182.254211,9169.296203
23375.103675,-95.712904,1205.982590,9877.571693
23375.106203,-76.570323,1205.982590,9724.431046
23375.108730,382.851616,-937.986459,9073.583299
23375.111258,-650.847747,-708.275490,9150.153622
23375.113786,-1110.269686,2737.389054,10490.134278
23375.116313,95.712904,248.853550,9399.007173
23375.118841,803.988394,-880.558717,8997.012976
23375.121369,440.279358,2718.246474,10088.140082
23375.123897,133.998066,899.701298,9628.718142
23375.126424,-937.986459,-1454.836141,9035.298138
23375.128952,-478.564520,3349.951640,10298.708470
23375.131480,555.134843,497.707101,9513.862658
23375.134007,995.414202,-1684.547110,8786.444587
23375.136535,-459.421939,3675.375514,10413.563955
23375.139063,-440.279358,2967.100024,10241.280728
23375.141590,650.847747,-1971.685822,8709.874264
23375.144118,-114.855485,1052.841944,9609.575562
23375.146646,-306.281293,2526.820666,10375.278794
23375.149174,440.279358,-363.709035,9322.436850
23375.151701,172.283227,-574.277424,9092.725880
23375.154229,-727.418070,1263.410333,9590.432981
23375.156757,19.142581,1186.840010,9762.716208
23375.159284,593.420005,-172.283227,9418.149754
23375.161812,133.998066,440.279358,9437.292334
23375.164340,-248.853550,2392.822600,10049.854920
23375.166867,114.855485,478.564520,9399.007173
23375.169395,76.570323,-172.283227,9245.866526
23375.171928,248.853550,1071.984525,9724.431046
23375.174459,880.558717,2392.822600,9896.714274
23375.176990,57.427742,-1990.828403,9054.440718
23375.179521,-459.421939,861.416136,9839.286531
23375.182052,-689.132909,2947.957443,10126.425243
23375.184582,612.562586,-1914.258080,8671.589102
23375.187113,574.277424,2354.537438,9647.860723
23375.189644,76.570323,1588.834206,9915.856854
23375.192175,172.283227,-38.285162,9360.722011
23375.194706,689.132909,267.996131,9533.005238
23375.197237,-2813.959378,1186.840010,9877.571693
23375.199768,2029.113565,3369.094221,10260.423309
23375.202299,2105.683888,-7312.465866,7274.180704
23375.204830,-2239.681954,-459.421939,9437.292334
23375.207361,-899.701298,13208.380752,13495.519464
23375.209892,1895.115499,-18453.447891,4249.652938
23375.212423,-842.273555,9456.434915,12002.398162
23375.214954,-2565.105827,7771.887805,12174.681389
23375.217485,4153.940034,-16366.906584,4383.651003
23375.220016,-4000.799387,10758.130410,12500.105262
23375.222547,-1052.841944,5072.783912,11638.689126
23375.225078,3388.236802,-14758.929797,5072.783912
23375.227609,-3637.090352,10930.413637,12576.675586
23375.230140,-593.420005,3503.092286,10968.698798
23375.232670,1665.404530,-13572.089787,5398.207786
23375.235201,153.140646,-2105.683888,8595.018779
23375.237732,-2431.107762,11389.835576,12997.812363
23375.240263,880.558717,-8307.880067,7369.893608
23375.242794,-344.566454,-1225.125171,8958.727814
23375.245325,-1799.402595,8078.169098,11983.255581
23375.247856,363.709035,-5302.494882,8154.739421
23375.250387,-497.707101,-287.138712,9226.723946
23375.252918,-669.990328,4785.645200,10815.558152
23375.255449,593.420005,-2775.674216,8671.589102
23375.257980,-842.273555,-803.988394,9303.294269
23375.260511,-1129.412267,2909.672282,10585.847182
23375.263042,-344.566454,-2526.820666,9035.298138
23375.265573,535.992262,-2220.539373,8824.729749
23375.268104,-76.570323,1607.976787,9877.571693
23375.270635,-1071.984525,842.273555,9839.286531
23375.273168,-516.849682,-2163.111630,8939.585234
23375.275702,-516.849682,2105.683888,9992.427178
23375.278236,-669.990328,842.273555,9820.143950
23375.280769,1014.556782,-2086.541307,8786.444587
23375.283303,-669.990328,784.845813,9839.286531
23375.285837,-191.425808,1091.127106,10011.569758
23375.288370,-957.129040,-2277.967115,8901.300072
23375.290904,306.281293,1780.260014,9801.001370
23375.293438,-1665.404530,-1684.547110,9284.151688
23375.295971,976.271621,3828.516160,10394.421374
23375.298505,2947.957443,-1339.980656,8671.589102
23375.301039,-1225.125171,-4479.363907,8269.594906
23375.303572,-535.992262,14069.796888,13246.665914
23375.306106,2565.105827,-12595.818166,5742.774240
23375.308640,-497.707101,2871.387120,9934.999435
23375.311173,-2679.961312,12710.673651,13361.521398
23375.313707,3828.516160,-13706.087853,5283.352301
23375.316241,-1301.695494,5340.780043,10681.560086
23375.318774,-1378.265818,9801.001370,12232.109131
23375.321308,3713.660675,-12921.242040,5455.635528
23375.323842,-2641.676150,6451.049730,11102.696864
23375.326375,38.285162,7101.897477,11906.685258
23375.328909,2545.963246,-6259.623922,7599.604578
23375.331443,306.281293,-3732.803256,7963.313613
23375.333977,-1856.830338,11964.113000,12882.956878
23375.336510,1244.267752,-7408.178770,7580.461997
23375.339044,-344.566454,-689.132909,8920.442653
23375.341578,-612.562586,8786.444587,11887.542677
23375.344111,2105.683888,-6297.909083,7676.174901
23375.346645,-516.849682,363.709035,9379.864592
23375.349179,-976.271621,5876.772306,11160.124606
23375.351712,1263.410333,-2871.387120,8595.018779
23375.354246,-516.849682,-746.560651,9054.440718
23375.356780,-19.142581,5072.783912,11006.983960
23375.359313,1167.697429,-1167.697429,8997.012976
23375.361847,440.279358,-3445.664544,8173.882002
23375.364381,-363.709035,2545.963246,10107.282662
23375.366914,248.853550,3713.660675,10470.991698
23375.369448,516.849682,-3522.234867,8327.022648
23375.371982,-555.134843,1933.400661,9934.999435
23375.374517,421.136778,2794.816797,10126.425243
23375.377053,153.140646,-3196.810994,8556.733618
23375.379589,325.423874,3771.088418,10126.425243
23375.382125,-976.271621,1071.984525,9801.001370
23375.384660,899.701298,-210.568389,9111.868461
23375.387196,-1110.269686,248.853550,9571.290400
23375.389732,1129.412267,4115.654872,10317.851051
23375.392268,2067.398726,-3311.666478,8537.591037
23375.394803,-1856.830338,-1799.402595,9169.296203
23375.397339,267.996131,10853.843314,12442.677520
23375.399875,1205.982590,-15677.773675,5149.354235
23375.402411,-2545.963246,8154.739421,11964.113000
23375.404946,-976.271621,7427.321350,11964.113000
23375.407482,2833.101958,-17094.324654,4326.223261
23375.410018,-3617.947771,13016.954944,13265.808494
23375.412554,-133.998066,3101.098090,10566.704602
23375.415090,2871.387120,-15007.783347,5053.641331
23375.417625,-3943.371645,13495.519464,13533.804626
23375.420161,765.703232,-133.998066,9667.003304
23375.422697,1225.125171,-12442.677520,5570.491013
23375.425233,-1875.972918,2029.113565,9992.427178
23375.427768,-2067.398726,10700.702667,12882.956878
23375.430304,1971.685822,-12461.820101,5838.487144
23375.432840,-765.703232,4441.078746,10432.706536
23375.435376,-1167.697429,6508.477472,11504.691061
23375.437911,1052.841944,-9418.149754,6872.186507
23375.440447,-746.560651,4153.940034,10643.274925
23375.442983,-784.845813,3656.232933,10815.558152
23375.445519,765.703232,-4134.797453,8193.024582
23375.448054,-1129.412267,937.986459,9686.145885
23375.450590,-478.564520,2737.389054,10394.421374
23375.453126,-114.855485,-3062.812928,8767.302006
23375.455662,497.707101,-2775.674216,8709.874264
23375.458197,-153.140646,3158.525832,10470.991698
23375.460733,-555.134843,-344.566454,9533.005238
23375.463269,-38.285162,-2871.387120,8767.302006
23375.465805,-1129.412267,3369.094221,10451.849117
23375.468340,-497.707101,95.712904,9628.718142
23375.470876,1359.123237,-2641.676150,8556.733618
23375.473412,-784.845813,2067.398726,10145.567824
23375.475950,-516.849682,689.132909,10011.569758
23375.478488,-574.277424,-2392.822600,8805.587168
23375.481026,38.285162,1186.840010,9743.573627
23375.483564,-1588.834206,57.427742,9686.145885
23375.486102,1780.260014,1569.691626,9724.431046
23375.488640,3158.525832,-5551.348432,7695.317482
23375.491177,-2239.681954,1646.261949,9896.714274
23375.493715,555.134843,11294.122672,12423.534939
23375.496253,2469.392923,-16060.625291,4689.932296
23375.498791,-1512.263883,11408.978157,12442.677520
23375.501329,-1914.258080,6259.623922,11562.118803
23375.503867,3828.516160,-14758.929797,4938.785846
23375.506405,-2545.963246,12136.396227,12748.958813
23375.508943,727.418070,3005.385186,10490.134278
23375.511481,3464.807125,-12442.677520,5379.065205
23375.514019,-3196.810994,12366.107197,12729.816232
23375.516557,708.275490,153.140646,9877.571693
23375.519095,2756.531635,-10451.849117,6297.909083
23375.521633,-401.994197,3158.525832,9915.856854
23375.524171,-1244.267752,8327.022648,11983.255581
23375.526709,1933.400661,-8977.870395,6776.473603
23375.529246,-1014.556782,3656.232933,10202.995566
23375.531784,-440.279358,5340.780043,11294.122672
23375.534322,1780.260014,-5800.201982,7752.745224
23375.536860,-650.847747,2699.103893,10049.854920
23375.539398,153.140646,3847.658741,10681.560086
23375.541936,689.132909,-3713.660675,8384.450390
23375.544474,-746.560651,2124.826469,9820.143950
23375.547012,-210.568389,3617.947771,10432.706536
23375.549550,765.703232,-3215.953574,8365.307810
23375.552088,823.130974,-1301.695494,8748.159426
23375.554626,-401.994197,5168.496816,10643.274925
23375.557164,-363.709035,-1799.402595,9092.725880
23375.559702,-95.712904,-976.271621,9111.868461
23375.562240,-95.712904,4957.928427,10624.132344
23375.564778,1014.556782,-3273.381317,8518.448456
23375.567316,1033.699363,1378.265818,9513.862658
23375.569853,-1091.127106,3081.955509,10451.849117
23375.572391,631.705166,-191.425808,9092.725880
23375.574929,-593.420005,-1741.974853,8920.442653
23375.577469,-1033.699363,6259.623922,11006.983960
23375.580009,2775.674216,-4115.654872,8422.735552
23375.582548,-0.000000,-10222.138147,6642.475538
23375.585088,-2660.818731,12595.818166,13189.238171
23375.587628,899.701298,-4900.500685,8307.880067
23375.590167,325.423874,-10164.710405,6470.192310
23375.592707,-2431.107762,18817.156926,14912.070443
23375.595246,1627.119368,-11676.974288,6278.766502
23375.597786,765.703232,-3790.230998,8307.880067
23375.600326,-3483.949706,15830.914322,14050.654307
23375.602865,2871.387120,-13476.376883,5723.631659
23375.605405,-880.558717,-535.992262,9092.725880
23375.607945,-1359.123237,13170.095590,13457.234302
23375.610484,1895.115499,-13284.951075,5857.629725
23375.613024,-2048.256146,2737.389054,10222.138147
23375.615564,-2833.101958,12538.390424,13112.667848
23375.618103,976.271621,-4230.510357,8518.448456
23375.620643,689.132909,-5359.922624,7676.174901
23375.623182,-1627.119368,9016.155557,12212.966550
23375.625722,937.986459,-3981.656806,8556.733618
23375.628262,-248.853550,-1895.115499,8690.731683
23375.630801,-842.273555,5053.641331,10949.556218
23375.633341,-76.570323,-2986.242605,8805.587168
23375.635881,-516.849682,-344.566454,9245.866526
23375.638420,-306.281293,2545.963246,10336.993632
23375.640960,-57.427742,-2526.820666,8939.585234
23375.643500,-784.845813,287.138712,9743.573627
23375.646039,-784.845813,1282.552914,9992.427178
23375.648579,421.136778,382.851616,9475.577496
23375.651119,-38.285162,-861.416136,9131.011042
23375.653658,-650.847747,401.994197,9762.716208
23375.656198,-555.134843,1837.687757,9973.284597
23375.658737,-1473.978722,-1378.265818,9322.436850
23375.661277,363.709035,248.853550,9418.149754
23375.663817,-689.132909,-1205.982590,9437.292334
23375.666356,-267.996131,3101.098090,10336.993632
23375.668896,918.843878,-3866.801322,8441.878133
23375.671436,-2507.678085,1837.687757,9934.999435
23375.673975,976.271621,5761.916821,10911.271056
23375.676515,765.703232,-11523.833642,6451.049730
23375.679056,-880.558717,1071.984525,9399.007173
23375.681597,-1359.123237,14337.793019,13380.663979
23375.684138,2411.965181,-16252.051099,4766.502619
23375.686679,-842.273555,7140.182638,11294.122672
23375.689220,-2450.250342,8997.012976,12117.253646
23375.691761,3579.662610,-14012.369146,5379.065205
23375.694302,-2258.824534,9724.431046,11734.402030
23375.696843,-459.421939,5800.201982,11274.980091
23375.699384,1397.408398,-11772.687192,5876.772306
23375.701925,-1550.549045,9322.436850,11772.687192
23375.704466,899.701298,2277.967115,10222.138147
23375.707007,1818.545176,-7389.036189,7178.467800
23375.709548,-497.707101,1110.269686,9437.292334
23375.712089,-1071.984525,6029.912952,11255.837510
23375.714630,784.845813,-4804.787781,8173.882002
23375.717171,-765.703232,1148.554848,9647.860723
23375.719712,57.427742,3771.088418,10585.847182
23375.722253,1071.984525,-2813.959378,8633.303941
23375.724794,-440.279358,1378.265818,9647.860723
23375.727335,-401.994197,3637.090352,10375.278794
23375.729876,459.421939,-2086.541307,8729.016845
23375.732417,267.996131,1320.838075,9609.575562
23375.734958,363.709035,3962.514226,10260.423309
23375.737499,-38.285162,-2124.826469,8748.159426
23375.740040,-287.138712,-1416.550979,9111.868461
23375.742581,95.712904,3828.516160,10279.565890
23375.745122,669.990328,-2105.683888,8824.729749
23375.747663,1167.697429,1301.695494,9590.432981
23375.750204,-1014.556782,3235.096155,10356.136213
23375.752745,727.418070,-497.707101,9150.153622
23375.755286,-1225.125171,-1263.410333,9035.298138
23375.757827,593.420005,6719.045861,10815.558152
23375.760368,1722.832272,-6853.043926,7561.319416
23375.762909,-2239.681954,4498.506488,10930.413637
23375.765450,1339.980656,3885.943902,10566.704602
23375.767991,-631.705166,-13725.230434,5857.629725
23375.770532,-3196.810994,15888.342064,14146.367211
23375.773073,-1837.687757,10930.413637,12997.812363
23375.775614,3081.955509,-16366.906584,4613.361973
23375.778155,-2545.963246,8997.012976,12098.111066
23375.780698,-1320.838075,7006.184573,11810.972354
23375.783240,2833.101958,-15333.207221,4957.928427
23375.785783,-3694.518094,10183.852986,12423.534939
23375.788325,57.427742,2890.529701,10643.274925
23375.790868,1914.258080,-12270.394293,5838.487144
23375.793410,-2565.105827,10777.272990,12748.958813
23375.795953,-708.275490,-937.986459,9571.290400
23375.798495,650.847747,-8078.169098,7006.184573
23375.801038,-1703.689691,8805.587168,12078.968485
23375.803580,-976.271621,-1205.982590,11274.980091
23375.806123,1033.699363,-5283.352301,7925.028451
23375.808665,-574.277424,497.707101,9437.292334
23375.811208,-1052.841944,4307.080680,10987.841379
23375.813750,229.710970,-2947.957443,8671.589102
23375.816292,-363.709035,-1244.267752,9188.438784
23375.818835,-593.420005,3196.810994,10643.274925
23375.821377,-401.994197,-1875.972918,9016.155557
23375.823920,-459.421939,-1837.687757,9111.868461
23375.826462,-421.136778,3158.525832,10413.563955
23375.829005,287.138712,-1091.127106,9131.011042
23375.831547,-708.275490,-1282.552914,9284.151688
23375.834090,-650.847747,4134.797453,10585.847182
23375.836632,-1550.549045,-19.142581,9858.429112
23375.839175,593.420005,-2450.250342,8748.159426
23375.841717,-612.562586,210.568389,9839.286531
23375.844260,-172.283227,3771.088418,10432.706536
23375.846802,727.418070,-5493.920690,8059.026517
23375.849345,-2699.103893,3656.232933,10528.419440
23375.851887,1397.408398,4153.940034,10566.704602
23375.854430,325.423874,-11045.269122,6489.334891
23375.856972,-1531.406464,15275.779478,13495.519464
23375.859515,1722.832272,-3905.086483,8154.739421
23375.862057,823.130974,-8059.026517,6738.188442
23375.864600,-3426.521963,16558.332392,14337.793019
23375.867142,-1895.115499,-8269.594906,11638.689126
23375.869685,3292.523898,-14242.080115,5321.637462
23375.872227,-2335.394858,11351.550414,12251.251712
23375.874769,287.138712,4153.940034,10796.415571
23375.877312,1493.121302,-11179.267187,6125.625856
23375.879854,-2182.254211,9934.999435,12059.825904
23375.882398,421.136778,1627.119368,10030.712339
23375.884942,2009.970984,-7389.036189,7006.184573
23375.887485,-1014.556782,8250.452325,11504.691061
23375.890029,-229.710970,325.423874,9801.001370
23375.892573,363.709035,-3503.092286,8154.739421
23375.895116,-842.273555,3445.664544,10356.136213
23375.897660,516.849682,535.992262,9801.001370
23375.900204,669.990328,-363.709035,9322.436850
23375.902747,421.136778,344.566454,9379.864592
23375.905291,-210.568389,1952.543242,9820.143950
23375.907835,76.570323,1301.695494,9571.290400
23375.910378,229.710970,248.853550,9303.294269
23375.912922,-248.853550,1186.840010,9781.858789
23375.915465,-57.427742,210.568389,9628.718142
23375.918009,976.271621,593.420005,9360.722011
23375.920553,-114.855485,153.140646,9418.149754
23375.923096,421.136778,1761.117434,9781.858789
23375.925640,-803.988394,1186.840010,9743.573627
23375.928184,478.564520,574.277424,9533.005238
23375.930727,-497.707101,-229.710970,8901.300072
23375.933271,363.709035,4900.500685,10432.706536
23375.935815,1780.260014,-3713.660675,8384.450390
23375.938358,-2258.824534,1454.836141,9896.714274
23375.940902,765.703232,6087.340694,10987.841379
23375.943446,-191.425808,-13514.662045,6068.198114
23375.945989,-2526.820666,12212.966550,13189.238171
23375.948533,191.425808,-1569.691626,9226.723946
23375.951077,2737.389054,-10911.271056,5857.629725
23375.953620,-4192.225195,14222.937534,13706.087853
23375.956164,669.990328,-3981.656806,8595.018779
23375.958707,1129.412267,-7733.602643,7121.040058
23375.961251,-3541.377448,12346.964616,13361.521398
23375.963795,-612.562586,5532.205851,11485.548480
23375.966338,2124.826469,-10126.425243,6374.479406
23375.968882,-1914.258080,6125.625856,11121.839445
23375.971426,-1339.980656,2641.676150,10547.562021
23375.973969,363.709035,-7714.460062,7312.465866
23375.976513,-631.705166,4977.071008,10911.271056
23375.979057,76.570323,1895.115499,10222.138147
23375.981600,535.992262,-4709.074877,8001.598774
23375.984145,-1378.265818,3617.947771,10528.419440
23375.986689,-535.992262,2220.539373,10279.565890
23375.989234,133.998066,-4364.508422,8154.739421
23375.991778,-842.273555,1741.974853,10068.997501
23375.994323,-1129.412267,1780.260014,10815.558152
23375.996867,555.134843,-2048.256146,9188.438784
23375.999412,287.138712,-1148.554848,8901.300072
23376.001956,-1225.125171,4364.508422,10662.417506
23376.004501,-95.712904,-3081.955509,8824.729749
23376.007045,-401.994197,382.851616,9571.290400
23376.009590,-1837.687757,2947.957443,10662.417506
23376.012134,1129.412267,-3120.240670,8556.733618
23376.014679,-861.416136,-1454.836141,9265.009107
23376.017223,-114.855485,5857.629725,11121.839445
23376.019768,114.855485,-6527.620053,7886.743290
23376.022312,-2297.109696,4345.365842,10585.847182
23376.024857,1914.258080,2431.107762,10145.567824
23376.027401,1665.404530,-11121.839445,6489.334891
23376.029945,-1320.838075,8059.026517,11428.120738
23376.032490,-133.998066,7044.469734,11294.122672
23376.035034,2220.539373,-14261.222696,5034.498750
23376.037579,-2411.965181,12959.527202,13093.525267
23376.040123,38.285162,1263.410333,9915.856854
23376.042668,2833.101958,-12346.964616,5666.203917
23376.045212,-2794.816797,13801.800757,13265.808494
23376.047757,1569.691626,-95.712904,9437.292334
23376.050301,1186.840010,-8288.737486,6623.332957
23376.052846,-2737.389054,11696.116869,12691.531070
23376.055390,1148.554848,-2622.533570,8882.157491
23376.057935,2660.818731,-5647.061336,6757.331022
23376.060479,-650.847747,5417.350366,10604.989763
23376.063024,-803.988394,5111.069074,10987.841379
23376.065568,459.421939,-6106.483275,7542.176835
23376.068113,-1148.554848,3388.236802,10375.278794
23376.070657,344.566454,2411.965181,10279.565890
23376.073202,1282.552914,-3081.955509,8537.591037
23376.075746,229.710970,3215.953574,10126.425243
23376.078291,191.425808,1952.543242,9839.286531
23376.080835,-267.996131,-593.420005,8863.014910
23376.083380,-1148.554848,1722.832272,9973.284597
23376.085925,153.140646,229.710970,9724.431046
23376.088470,1627.119368,593.420005,9399.007173
23376.091015,172.283227,-19.142581,9360.722011
23376.093560,650.847747,1263.410333,9533.005238
23376.096105,-1550.549045,1205.982590,9647.860723
23376.098650,-38.285162,2354.537438,9992.427178
23376.101195,-344.566454,-2737.389054,8767.302006
23376.103740,1129.412267,5149.354235,10643.274925
23376.106285,995.414202,-3828.516160,8556.733618
23376.108830,-1971.685822,2660.818731,10183.852986
23376.111375,612.562586,2756.531635,10068.997501
23376.113920,-1263.410333,-9839.286531,6987.041992
23376.116465,-1761.117434,12902.099459,13361.521398
23376.119010,1014.556782,-7484.749093,7503.891674
23376.121555,2469.392923,-13265.808494,5474.778109
23376.124100,-2909.672282,8958.727814,12155.538808
23376.126645,-1205.982590,3885.943902,10758.130410
23376.129190,2239.681954,-11217.552349,6068.198114
23376.131735,-3196.810994,8997.012976,12193.823970
23376.134280,248.853550,-172.283227,9934.999435
23376.136824,1454.836141,-8384.450390,6987.041992
23376.139369,-1952.543242,8786.444587,11906.685258
23376.141914,-306.281293,-1875.972918,9207.581365
23376.144459,-287.138712,-4957.928427,8078.169098
23376.147004,-1205.982590,6699.903280,11581.261384
23376.149549,210.568389,-1741.974853,9226.723946
23376.152094,401.994197,-3024.527766,8461.020714
23376.154639,-631.705166,344.566454,9552.147819
23376.157184,-861.416136,2124.826469,10260.423309
23376.159729,-612.562586,-1186.840010,9226.723946
23376.162274,-574.277424,-1320.838075,9207.581365
23376.164819,-229.710970,267.996131,9954.142016
23376.167364,-267.996131,1186.840010,10011.569758
23376.169909,-344.566454,-880.558717,9169.296203
23376.172454,-918.843878,-325.423874,9379.864592
23376.174999,-1071.984525,3005.385186,10279.565890
23376.177544,-669.990328,-1741.974853,9207.581365
23376.180089,1014.556782,-1339.980656,9207.581365
23376.182634,-1205.982590,976.271621,10011.569758
23376.185179,-842.273555,4479.363907,10796.415571
23376.187725,574.277424,-4364.508422,8327.022648
23376.190271,-2354.537438,1282.552914,9686.145885
23376.192817,1493.121302,6297.909083,11006.983960
23376.195363,708.275490,-11255.837510,6546.762634
23376.197908,-1339.980656,12768.101394,12863.814298
23376.200454,823.130974,-784.845813,9054.440718
23376.203000,1129.412267,-9035.298138,6374.479406
23376.205545,-3311.666478,15103.496251,13801.800757
23376.208091,2258.824534,-5704.489078,7791.030386
23376.210637,2048.256146,-7235.895542,7101.897477
23376.213183,-2928.814862,13974.083984,13495.519464
23376.215728,2373.680019,-5264.209720,11466.405899
23376.218274,1780.260014,-9743.573627,6297.909083
23376.220820,-1990.828403,6527.620053,10987.841379
23376.223366,-191.425808,3579.662610,10719.845248
23376.225911,2009.970984,-7331.608446,7235.895542
23376.228457,-153.140646,6336.194245,10911.271056
23376.231003,-57.427742,1818.545176,10145.567824
23376.233548,229.710970,-4536.791650,8020.741355
23376.236094,-1205.982590,4689.932296,10681.560086
23376.238640,631.705166,1263.410333,9801.001370
23376.241186,1167.697429,-3158.525832,8384.450390
23376.243731,153.140646,4268.795518,10490.134278
23376.246277,497.707101,1588.834206,9762.716208
23376.248823,-76.570323,-2316.252277,8690.731683
23376.251369,229.710970,363.709035,9360.722011
23376.253914,440.279358,4594.219392,10585.847182
23376.256460,1263.410333,-3273.381317,8614.161360
23376.259006,650.847747,899.701298,9418.149754
23376.261551,-1895.115499,4766.502619,10834.700733
23376.264097,784.845813,-1952.543242,8748.159426
23376.266643,-880.558717,-1052.841944,9035.298138
23376.269189,1129.412267,6872.186507,11217.552349
23376.271734,555.134843,-6163.911018,7963.313613
23376.274280,-957.129040,6106.483275,11045.269122
23376.276826,497.707101,-2431.107762,8786.444587
23376.279372,-1952.543242,-4575.076811,6336.194245
23376.281917,-2201.396792,11696.116869,12882.956878
23376.284463,497.707101,-2890.529701,8882.157491
23376.287009,2737.389054,-9647.860723,6470.192310
23376.289555,-4594.219392,13840.085918,13820.943338
23376.292101,478.564520,-5130.211654,8307.880067
23376.294647,1110.269686,-6719.045861,7140.182638
23376.297193,-3407.379382,12385.249778,13284.951075
23376.299740,1339.980656,-6489.334891,7944.171032
23376.302286,650.847747,-4689.932296,8001.598774
23376.304832,-1741.974853,9647.860723,12346.964616
23376.307378,229.710970,-5608.776174,8078.169098
23376.309924,-918.843878,-1971.685822,8805.587168
23376.312471,-842.273555,4575.076811,10796.415571
23376.315017,-191.425808,746.560651,9973.284597
23376.317563,-57.427742,-2756.531635,8633.303941
23376.320109,-784.845813,2679.961312,10317.851051
23376.322655,-727.418070,-669.990328,9437.292334
23376.325201,-669.990328,-861.416136,9303.294269
23376.327748,-382.851616,306.281293,9552.147819
23376.330294,574.277424,-803.988394,9418.149754
23376.332840,-478.564520,1435.693560,9934.999435
23376.335386,-784.845813,-1378.265818,9341.579430
23376.337932,-478.564520,1148.554848,9628.718142
23376.340478,-1320.838075,1167.697429,9915.856854
23376.343025,918.843878,-3043.670347,9265.009107
23376.345571,-153.140646,-2124.826469,9092.725880
23376.348117,-57.427742,5264.209720,11006.983960
23376.350663,-1033.699363,-5015.356170,8422.735552
23376.353209,-823.130974,3426.521963,10241.280728
23376.355755,1741.974853,-995.414202,9150.153622
23376.358302,-612.562586,-1205.982590,9131.011042
23376.360848,1129.412267,8824.729749,11542.976222
23376.363394,1263.410333,-11408.978157,6183.053598
23376.365940,-1282.552914,9609.575562,11964.113000
23376.368486,-1990.828403,4536.791650,10796.415571
23376.371033,3483.949706,-11868.400096,5800.201982
23376.373579,-1818.545176,10911.271056,12385.249778
23376.376125,-2584.248408,12270.394293,13189.238171
23376.378671,3273.381317,-8173.882002,7044.469734
23376.381217,-535.992262,114.855485,8920.442653
23376.383763,-1971.685822,10394.421374,12500.105262
23376.386310,1416.550979,-6910.471669,7465.606512
23376.388856,57.427742,172.283227,9150.153622
23376.391402,-478.564520,7159.325219,11657.831707
23376.393948,842.273555,-4517.649069,8307.880067
23376.396495,-823.130974,1569.691626,9628.718142
23376.399041,306.281293,2986.242605,10202.995566
23376.401587,363.709035,-2507.678085,8767.302006
23376.404134,401.994197,3024.527766,10049.854920
23376.406680,114.855485,937.986459,9705.288466
23376.409226,746.560651,-1665.404530,8920.442653
23376.411773,-727.418070,1282.552914,9552.147819
23376.414319,421.136778,3101.098090,10030.712339
23376.416866,325.423874,-1875.972918,8843.872330
23376.419412,-133.998066,2009.970984,10030.712339
23376.421958,382.851616,2737.389054,9992.427178
23376.424505,612.562586,-3426.521963,8422.735552
23376.427051,-899.701298,3771.088418,10336.993632
23376.429597,459.421939,1378.265818,9820.143950
23376.432144,-421.136778,-1722.832272,8882.157491
23376.434690,1512.263883,3369.094221,10202.995566
23376.437236,-1895.115499,-4192.225195,8729.016845
23376.439783,-2890.529701,4536.791650,11045.269122
23376.442329,478.564520,2392.822600,10222.138147
23376.444875,765.703232,-12193.823970,6049.055533
23376.447422,-1665.404530,14471.791085,13801.800757
23376.449968,-76.570323,-3675.375514,8671.589102
23376.452514,1856.830338,-10394.421374,6374.479406
23376.455061,-3771.088418,13840.085918,13399.806560
23376.457607,976.271621,-4575.076811,8346.165229
23376.460153,995.414202,-7178.467800,7216.752962
23376.462700,-2258.824534,10566.704602,12729.816232
23376.465246,1320.838075,-3560.520029,8652.446522
23376.467792,306.281293,-5053.641331,7829.315547
23376.470339,-2335.394858,8231.309744,12002.398162
23376.472885,-478.564520,3388.236802,10872.985894
23376.475431,650.847747,-5072.783912,7848.458128
23376.477978,-746.560651,1665.404530,9801.001370
23376.480524,-823.130974,2603.390989,10585.847182
23376.483070,-19.142581,-2890.529701,8767.302006
23376.485617,-765.703232,-363.709035,9379.864592
23376.488163,-478.564520,2679.961312,10413.563955
23376.490709,363.709035,-1875.972918,9054.440718
23376.493256,-689.132909,-1301.695494,9341.579430
23376.495802,-631.705166,2718.246474,10356.136213
23376.498348,95.712904,-1435.693560,8863.014910
23376.500895,-1665.404530,-497.707101,9513.862658
23376.503441,-995.414202,3866.801322,10662.417506
23376.505987,363.709035,-2545.963246,8977.870395
23376.508533,-344.566454,-325.423874,9226.723946
23376.511080,-19.142581,2067.398726,10164.710405
23376.513626,-1818.545176,-1914.258080,9111.868461
23376.516172,1799.402595,4460.221326,10432.706536
23376.518719,459.421939,-7101.897477,7599.604578
23376.521265,-1416.550979,9628.718142,12136.396227
23376.523811,669.990328,1282.552914,9609.575562
23376.526358,1607.976787,-10107.282662,6240.481341
23376.528904,-2813.959378,13935.798822,13418.949141
23376.531450,1301.695494,-2813.959378,8537.591037
23376.533996,2565.105827,-9092.725880,5819.344563
23376.536543,-1301.695494,5225.924558,10585.847182
23376.539089,-1110.269686,9322.436850,12174.681389
23376.541635,2411.965181,-9552.147819,6431.907149
23376.544182,-1435.693560,3369.094221,10222.138147
23376.546728,-995.414202,7063.612315,11676.974288
23376.549274,1990.828403,-7331.608446,7274.180704
23376.551821,-133.998066,3235.096155,9973.284597
23376.554367,-325.423874,4307.080680,10872.985894
23376.556913,669.990328,-3694.518094,8365.307810
23376.559459,-76.570323,1531.406464,9571.290400
23376.562006,-133.998066,3560.520029,10317.851051
23376.564552,497.707101,-1359.123237,9016.155557
23376.567098,153.140646,-957.129040,9150.153622
23376.569645,-57.427742,1875.972918,9820.143950
23376.572191,555.134843,2488.535504,9820.143950
23376.574737,210.568389,-1493.121302,8920.442653
23376.577284,57.427742,1607.976787,9858.429112
23376.579830,-842.273555,2756.531635,10202.995566
23376.582376,784.845813,-2297.109696,8767.302006
23376.584922,-459.421939,1033.699363,9552.147819
23376.587469,823.130974,3751.945837,10375.278794
23376.590015,-1167.697429,-2622.533570,8805.587168
23376.592561,1435.693560,4670.789715,10413.563955
23376.595108,-593.420005,-6451.049730,7925.028451
23376.597654,-2756.531635,6757.331022,9226.723946
23376.600201,-746.560651,11006.983960,12729.816232
23376.602748,1531.406464,-14797.214958,5225.924558
23376.605294,-133.998066,6565.905214,11332.407834
23376.607841,-2565.105827,8020.741355,12059.825904
23376.610387,2986.242605,-15314.064640,5072.783912
23376.612934,-2297.109696,7389.036189,11428.120738
23376.615480,-1493.121302,6891.329088,11887.542677
23376.618027,2507.678085,-12251.251712,6029.912952
23376.620574,-1856.830338,5608.776174,11006.983960
23376.623120,-880.558717,5245.067139,11313.265253
23376.625667,1512.263883,-9571.290400,6661.618118
23376.628213,-1339.980656,4326.223261,10585.847182
23376.630760,-1052.841944,6546.762634,11504.691061
23376.633306,-19.142581,-1875.972918,9131.011042
23376.635853,-267.996131,-1741.974853,8748.159426
23376.638400,-1148.554848,2584.248408,10451.849117
23376.640946,-382.851616,-765.703232,9552.147819
23376.643493,229.710970,-957.129040,9188.438784
23376.646039,-153.140646,382.851616,9686.145885
23376.648586,-727.418070,-38.285162,9762.716208
23376.651132,38.285162,-535.992262,9494.720077
23376.653679,95.712904,-172.283227,9303.294269
23376.656225,-1799.402595,1454.836141,10068.997501
23376.658772,344.566454,267.996131,9475.577496
23376.661319,-248.853550,-3866.801322,8288.737486
23376.663865,-650.847747,2297.109696,10107.282662
23376.666412,-229.710970,1435.693560,10068.997501
23376.668958,-1129.412267,-3215.953574,8614.161360
23376.671505,1359.123237,5723.631659,10758.130410
23376.674051,38.285162,-7140.182638,7618.747158
23376.676581,-995.414202,8882.157491,11830.114934
23376.679111,631.705166,1167.697429,9571.290400
23376.681641,1225.125171,-8403.592971,6680.760699
23376.684171,-2469.392923,12672.388490,13036.097525
23376.686701,1282.552914,-3235.096155,8365.307810
23376.689231,2622.533570,-7733.602643,6833.901346
23376.691761,-3043.670347,12729.816232,13189.238171
23376.694291,-899.701298,8327.022648,11944.970419
23376.696821,2507.678085,-9724.431046,6297.909083
23376.699351,-1320.838075,4345.365842,10317.851051
23376.701881,-784.845813,6431.907149,11504.691061
23376.704411,1665.404530,-6853.043926,7465.606512
23376.706941,-612.562586,2947.957443,9934.999435
23376.709471,-363.709035,4287.938099,10911.271056
23376.712000,363.709035,-4039.084549,8269.594906
23376.714530,153.140646,2335.394858,9667.003304
23376.717060,57.427742,2679.961312,10164.710405
23376.719590,382.851616,-1512.263883,9035.298138
23376.722120,-210.568389,1895.115499,9820.143950
23376.724650,555.134843,2086.541307,9877.571693
23376.727180,-363.709035,76.570323,9379.864592
23376.729710,-401.994197,803.988394,9647.860723
23376.732240,784.845813,1837.687757,9724.431046
23376.734770,306.281293,-2124.826469,9035.298138
23376.737300,-114.855485,3177.668413,10183.852986
23376.739830,382.851616,-363.709035,9399.007173
23376.742360,-421.136778,995.414202,9418.149754
23376.744890,1110.269686,1263.410333,9686.145885
23376.747420,-2143.969050,-2565.105827,8997.012976
23376.749949,-57.427742,8193.024582,11657.831707
23376.752479,689.132909,-11332.407834,6412.764568
23376.755009,-1531.406464,4441.078746,10911.271056
23376.757539,-2220.539373,15122.638832,13993.226565
23376.760069,1071.984525,-8307.880067,7178.467800
23376.762599,689.132909,-5379.065205,7829.315547
23376.765129,-4019.941968,13552.947206,13514.662045
23376.767659,2143.969050,-8346.165229,7121.040058
23376.770189,-133.998066,-3866.801322,8173.882002
23376.772719,-2507.678085,10547.562021,12768.101394
23376.775249,1397.408398,-6508.477472,7829.315547
23376.777781,-172.283227,-2890.529701,8441.878133
23376.780314,-2029.113565,7618.747158,12002.398162
23376.782846,478.564520,-3541.377448,8614.161360
23376.785379,114.855485,-3445.664544,8327.022648
23376.787911,-1301.695494,5570.491013,9724.431046
23376.790444,-1071.984525,3828.516160,10853.843314
23376.792976,497.707101,-4249.652938,8346.165229
23376.795509,-497.707101,-555.134843,9322.436850
23376.798042,-1416.550979,3483.949706,10796.415571
23376.800574,-172.283227,-3541.377448,8729.016845
23376.803107,287.138712,-114.855485,9341.579430
23376.805639,-1263.410333,3349.951640,10604.989763
23376.808172,-57.427742,-3464.807125,8690.731683
23376.810704,-918.843878,1512.263883,9820.143950
23376.813237,-133.998066,1837.687757,10088.140082
23376.815769,-478.564520,-3062.812928,8805.587168
23376.818302,861.416136,1301.695494,9839.286531
23376.820834,-306.281293,-2660.818731,8901.300072
23376.823367,-1339.980656,6719.045861,11198.409768
23376.825899,2641.676150,-1588.834206,8729.016845
23376.828432,-287.138712,-6183.053598,7465.606512
23376.830964,-1110.269686,15716.058837,13744.373014
23376.833497,1397.408398,-9379.864592,6661.618118
23376.836029,669.990328,-3062.812928,8346.165229
23376.838562,-3637.090352,15811.771741,14108.082050
23376.841094,3407.379382,-10183.852986,6680.760699
23376.843627,-95.712904,-2086.541307,8422.735552
23376.846159,-2507.678085,14165.509792,13418.949141
23376.848692,2411.965181,-8824.729749,6776.473603
23376.851225,19.142581,-1837.687757,6144.768437
23376.853757,-1780.260014,8652.446522,11676.974288
23376.856290,153.140646,3062.812928,10547.562021
23376.858822,1454.836141,-6546.762634,7274.180704
23376.861355,-842.273555,3541.377448,10260.423309
23376.863887,-210.568389,3215.953574,10643.274925
23376.866420,612.562586,-2890.529701,8384.450390
23376.868952,-114.855485,1875.972918,9609.575562
23376.871485,-191.425808,3139.383251,10394.421374
23376.874017,1378.265818,-612.562586,8958.727814
23376.876550,-478.564520,612.562586,9494.720077
23376.879084,-803.988394,3043.670347,10317.851051
23376.881619,937.986459,-440.279358,8920.442653
23376.884153,937.986459,-3483.949706,8441.878133
23376.886688,-172.283227,2660.818731,10202.995566
23376.889222,401.994197,2143.969050,10107.282662
23376.891757,-708.275490,-1071.984525,8958.727814
23376.894291,1473.978722,2335.394858,9896.714274
23376.896826,-2335.394858,-3349.951640,8901.300072
23376.899360,-650.847747,8403.592971,11887.542677
23376.901895,1320.838075,-9571.290400,6719.045861
23376.904429,-1225.125171,95.712904,9705.288466
23376.906964,-2029.113565,11581.261384,13284.951075
23376.909498,2622.533570,-14242.080115,5225.924558
23376.912033,-1971.685822,4364.508422,10777.272990
23376.914567,-3158.525832,10107.282662,13667.802691
23376.917102,1550.549045,-4402.793584,8422.735552
23376.919636,1167.697429,-8633.303941,6795.616184
23376.922171,-3024.527766,12308.679454,13304.093656
23376.924705,535.992262,-3732.803256,8729.016845
23376.927240,957.129040,-7025.327154,7140.182638
23376.929774,-2067.398726,9054.440718,12289.536874
23376.932309,631.705166,-2182.254211,9111.868461
23376.934843,-172.283227,-5321.637462,7829.315547
23376.937378,-1799.402595,6604.190376,11370.692995
23376.939912,-459.421939,-957.129040,9513.862658
23376.942447,287.138712,-4383.651003,8173.882002
23376.944981,-1301.695494,3905.086483,10738.987829
23376.947516,-1435.693560,2909.672282,10738.987829
23376.950050,1033.699363,-2718.246474,8709.874264
23376.952585,-0.000000,-459.421939,9265.009107
23376.955119,-2048.256146,2641.676150,10604.989763
23376.957654,-248.853550,-57.427742,9399.007173
23376.960188,-153.140646,-2967.100024,8690.731683
23376.962723,-937.986459,4345.365842,10758.130410
23376.965257,401.994197,-1990.828403,9226.723946
23376.967792,-1282.552914,-1186.840010,9150.153622
23376.970326,1990.828403,5168.496816,10643.274925
23376.972861,-669.990328,-7886.743290,7293.323285
23376.975395,-650.847747,11006.983960,12366.107197
23376.977930,1320.838075,-2450.250342,12021.540742
23376.980450,2469.392923,-12500.105262,5532.205851
23376.982969,-1761.117434,8078.169098,11696.116869
23376.985489,-1167.697429,6125.625856,11217.552349
23376.988008,3790.230998,-12997.812363,5570.491013
23376.990528,-2641.676150,9762.716208,12117.253646
23376.993047,478.564520,4957.928427,10968.698798
23376.995567,2584.248408,-11198.409768,5761.916821
23376.998086,-2124.826469,9858.429112,11983.255581
23377.000606,-382.851616,3503.092286,10662.417506
23377.003125,1856.830338,-8212.167163,6738.188442
23377.005645,-1071.984525,4977.071008,10700.702667
23377.008164,114.855485,4211.367776,10987.841379
23377.010684,631.705166,-1301.695494,9265.009107
23377.013203,631.705166,-1818.545176,8556.733618
23377.015723,-325.423874,4441.078746,10585.847182
23377.018243,555.134843,765.703232,9533.005238
23377.020762,459.421939,-344.566454,9035.298138
23377.023282,-555.134843,2431.107762,10107.282662
23377.025801,535.992262,440.279358,9533.005238
23377.028321,-267.996131,555.134843,9418.149754
23377.030840,459.421939,1167.697429,9743.573627
23377.033360,-210.568389,-459.421939,9360.722011
23377.035879,1033.699363,1665.404530,9762.716208
23377.038399,-1971.685822,631.705166,9667.003304
23377.040918,-650.847747,6029.912952,10872.985894
23377.043438,1339.980656,-6297.909083,7695.317482
23377.045957,-2469.392923,133.998066,9839.286531
23377.048477,-880.558717,10336.993632,12691.531070
23377.050997,1359.123237,-16060.625291,4957.928427
23377.053516,-803.988394,8327.022648,11906.685258
23377.056036,-1684.547110,6833.901346,11657.831707
23377.058555,3158.525832,-15888.342064,4728.217458
23377.061075,-3005.385186,9092.725880,11849.257515
23377.063594,-708.275490,6259.623922,11619.546546
23377.066114,2622.533570,-14050.654307,5417.350366
23377.068633,-2622.533570,8595.018779,11983.255581
23377.071153,-1148.554848,4268.795518,11179.267187
23377.073672,1397.408398,-7695.317482,7523.034254
23377.076192,95.712904,-2622.533570,8441.878133
23377.078711,-1512.263883,8461.020714,12078.968485
23377.081235,669.990328,-4326.223261,8480.163294
23377.083759,-421.136778,-1244.267752,8882.157491
23377.086282,-995.414202,4364.508422,10872.985894
23377.088806,-172.283227,-3828.516160,8748.159426
23377.091329,-401.994197,-593.420005,9494.720077
23377.093853,210.568389,2316.252277,10279.565890
23377.096376,516.849682,-2105.683888,8786.444587
23377.098900,-2086.541307,612.562586,9915.856854
23377.101423,-267.996131,2182.254211,10145.567824
23377.103947,-229.710970,-2909.672282,8748.159426
23377.106470,-133.998066,727.418070,9571.290400
23377.108994,19.142581,1167.697429,10011.569758
23377.111517,-1244.267752,-1148.554848,9399.007173
23377.114041,1990.828403,3043.670347,10030.712339
23377.116564,-612.562586,-6776.473603,7618.747158
23377.119088,-1301.695494,11179.267187,12461.820101
23377.121612,1282.552914,-2258.824534,8633.303941
23377.124135,1205.982590,-6278.766502,7178.467800
23377.126659,-3120.240670,14433.505923,13552.947206
23377.129182,2163.111630,-6738.188442,7427.321350
23377.131706,2105.683888,-6087.340694,7312.465866
23377.134229,-3043.670347,14433.505923,13610.374949
23377.136753,191.425808,6087.340694,11294.122672
23377.139276,2909.672282,-12059.825904,5608.776174
23377.141800,-2086.541307,9686.145885,11906.685258
23377.144323,-861.416136,4364.508422,10930.413637
23377.146847,1703.689691,-8403.592971,6565.905214
23377.149370,-516.849682,4441.078746,10451.849117
23377.151894,191.425808,3809.373579,10968.698798
23377.154417,746.560651,-3522.234867,8403.592971
23377.156941,287.138712,1952.543242,9705.288466
23377.159464,-172.283227,2411.965181,9973.284597
23377.161988,861.416136,708.275490,9284.151688
23377.164512,-114.855485,497.707101,9418.149754
23377.167035,76.570323,669.990328,9628.718142
23377.169559,401.994197,3120.240670,10088.140082
23377.172082,612.562586,-2584.248408,8633.303941
23377.174606,612.562586,1186.840010,9628.718142
23377.177129,-535.992262,2469.392923,10298.708470
23377.179653,421.136778,287.138712,9207.581365
23377.182163,1320.838075,-2469.392923,8595.018779
23377.184674,-3464.807125,3617.947771,10624.132344
23377.187184,1493.121302,5034.498750,10777.272990
23377.189695,784.845813,-14127.224630,5666.203917
23377.192205,-2890.529701,12251.251712,13304.093656
23377.194715,-382.851616,-133.998066,9801.001370
23377.197226,3158.525832,-14376.078181,5053.641331
23377.199736,-1052.841944,1741.974853,9992.427178
23377.202247,-4115.654872,13648.660110,13706.087853
23377.204757,3522.234867,-14280.365277,5245.067139
23377.207267,-2029.113565,2699.103893,10030.712339
23377.209778,-2009.970984,11026.126541,13189.238171
23377.212288,2450.250342,-14165.509792,5570.491013
23377.214798,-957.129040,3388.236802,10375.278794
23377.217309,-1799.402595,8556.733618,12404.392358
23377.219819,1741.974853,-9571.290400,6699.903280
23377.222330,-1378.265818,1493.121302,9667.003304
23377.224840,-1550.549045,6891.329088,11734.402030
23377.227350,38.285162,-6872.186507,7618.747158
23377.229861,229.710970,-5761.916821,7925.028451
23377.232371,-1646.261949,4555.934230,11160.124606
23377.234882,765.703232,-287.138712,9552.147819
23377.237392,248.853550,-3924.229064,8212.167163
23377.239902,-2086.541307,2794.816797,10547.562021
23377.242413,-1148.554848,2335.394858,10336.993632
23377.244923,210.568389,-4709.074877,8193.024582
23377.247434,-555.134843,3101.098090,10298.708470
23377.249944,19.142581,765.703232,9915.856854
23377.252454,-1167.697429,-2029.113565,8920.442653
23377.254965,1971.685822,3828.516160,10279.565890
23377.257475,-861.416136,-6565.905214,7848.458128
23377.259986,-918.843878,10509.276859,12327.822035
23377.262496,-172.283227,8939.585234,11772.687192
23377.265006,2545.963246,-11734.402030,5570.491013
23377.267517,-1856.830338,8039.883936,11542.976222
23377.270027,-1167.697429,5895.914886,11102.696864
23377.272537,4058.227130,-12921.242040,5589.633594
23377.275048,-2565.105827,9820.143950,12174.681389
23377.277558,593.420005,4287.938099,10911.271056
23377.280069,2488.535504,-11447.263318,5723.631659
23377.282585,-2163.111630,11006.983960,12289.536874
23377.285101,-612.562586,2756.531635,10432.706536
23377.287617,1531.406464,-8116.454259,6833.901346
23377.290133,-861.416136,6087.340694,10911.271056
23377.292649,-76.570323,5474.778109,11121.839445
23377.295165,1091.127106,-2737.389054,8805.587168
23377.297681,516.849682,1722.832272,9571.290400
23377.300197,-57.427742,3407.379382,10049.854920
23377.302713,-574.277424,-689.132909,9073.583299
23377.305229,-1091.127106,2220.539373,10030.712339
23377.307745,1110.269686,421.136778,9379.864592
23377.310261,-0.000000,-57.427742,9341.579430
23377.312777,306.281293,3560.520029,10317.851051
23377.315293,-0.000000,-2890.529701,8652.446522
23377.317809,937.986459,2143.969050,9839.286531
23377.320325,-2048.256146,746.560651,9858.429112
23377.322841,-2373.680019,3273.381317,10930.413637
23377.325357,2411.965181,-2909.672282,8556.733618
23377.327873,-2048.256146,-5417.350366,8135.596840
23377.330389,-1875.972918,13878.371080,13648.660110
23377.332906,1148.554848,-13036.097525,5838.487144
23377.335422,880.558717,-1110.269686,9073.583299
23377.337938,-3369.094221,13916.656242,13801.800757
23377.340454,2986.242605,-14203.794954,5532.205851
23377.342970,-1129.412267,593.420005,9341.579430
23377.345486,-2297.109696,13782.658176,13610.374949
23377.348002,2469.392923,-13610.374949,5627.918755
23377.350518,-1512.263883,1780.260014,9820.143950
23377.353034,-2469.392923,10241.280728,12863.814298
23377.355550,-172.283227,-1837.687757,9399.007173
23377.358066,1052.841944,-7484.749093,6948.756830
23377.360582,-1684.547110,7350.751027,11581.261384
23377.363098,-76.570323,478.564520,10011.569758
23377.365614,-57.427742,-5168.496816,7905.885870
23377.368130,-1780.260014,2986.242605,10547.562021
23377.370646,-823.130974,-172.283227,9915.856854
23377.373162,1282.552914,-2833.101958,8767.302006
23377.375678,-574.277424,2411.965181,10222.138147
23377.378194,-612.562586,-689.132909,9571.290400
23377.380710,-1301.695494,133.998066,9475.577496
23377.383231,-478.564520,421.136778,9724.431046
23377.385752,-1244.267752,-344.566454,9456.434915
23377.388273,1550.549045,1129.412267,9667.003304
23377.390793,-1339.980656,-2947.957443,8901.300072
23377.393314,-497.707101,8250.452325,11715.259450
23377.395835,2143.969050,-5838.487144,7676.174901
23377.398356,-899.701298,-727.418070,9111.868461
23377.400877,-861.416136,13399.806560,13112.667848
23377.403397,2622.533570,-12346.964616,5455.635528
23377.405918,-1033.699363,3637.090352,10298.708470
23377.408439,-2469.392923,11638.689126,12959.527202
23377.410960,4268.795518,-13495.519464,5513.063270
23377.413481,-1875.972918,5264.209720,10681.560086
23377.416001,-746.560651,9494.720077,12404.392358
23377.418522,1818.545176,-4919.643266,8116.454259
23377.421043,1531.406464,-6240.481341,7140.182638
23377.423564,-2239.681954,13074.382686,13036.097525
23377.426085,689.132909,-3560.520029,8671.589102
23377.428605,-76.570323,-4383.651003,7829.315547
23377.431126,-727.418070,7523.034254,11523.833642
23377.433647,1339.980656,-2086.541307,8901.300072
23377.436168,1186.840010,-612.562586,8863.014910
23377.438689,-803.988394,5761.916821,10738.987829
23377.441209,-248.853550,-1588.834206,8920.442653
23377.443730,382.851616,210.568389,9245.866526
23377.446251,-535.992262,4421.936165,10662.417506
23377.448772,803.988394,-1875.972918,10126.425243
23377.451292,114.855485,-2699.103893,8480.163294
23377.453813,823.130974,2871.387120,10049.854920
23377.456334,-2220.539373,937.986459,9973.284597
23377.458855,1416.550979,2143.969050,9820.143950
23377.461376,267.996131,-6814.758765,7618.747158
23377.463896,-2833.101958,8480.163294,12098.111066
23377.466417,650.847747,-861.416136,9360.722011
23377.468938,497.707101,-11944.970419,6087.340694
23377.471459,-2871.387120,15141.781413,14242.080115
23377.473980,1225.125171,-5053.641331,8116.454259
23377.476500,1684.547110,-9839.286531,6470.192310
23377.479021,-4747.360038,14835.500120,13974.083984
23377.481542,-1397.408398,9494.720077,12442.677520
23377.484067,2450.250342,-13820.943338,5474.778109
23377.486592,-2392.822600,6278.766502,11217.552349
23377.489118,-2105.683888,6431.907149,11849.257515
23377.491643,1722.832272,-11715.259450,6106.483275
23377.494168,-1359.123237,4613.361973,10643.274925
23377.496693,-478.564520,4536.791650,10968.698798
23377.499219,210.568389,-6508.477472,7733.602643
23377.501744,-1454.836141,3101.098090,10317.851051
23377.504269,-1359.123237,1875.972918,10394.421374
23377.506794,1091.127106,-5034.498750,8059.026517
23377.509319,-210.568389,1799.402595,10049.854920
23377.511845,-1818.545176,2067.398726,10834.700733
23377.514370,535.992262,-918.843878,9207.581365
23377.516895,-631.705166,-3235.096155,8441.878133
23377.519420,-593.420005,5436.492947,11083.554283
23377.521946,-1378.265818,-2737.389054,8977.870395
23377.524471,1493.121302,172.283227,9303.294269
23377.526996,-306.281293,-1091.127106,9360.722011
23377.529521,-1416.550979,5991.627790,11102.696864
23377.532046,2373.680019,-2258.824534,8652.446522
23377.534572,-172.283227,-5685.346498,7657.032320
23377.537097,-995.414202,15371.492382,13552.947206
23377.539622,1607.976787,-8212.167163,6738.188442
23377.542147,114.855485,-3349.951640,8327.022648
23377.544673,-2277.967115,11983.255581,12614.960747
23377.547198,-210.568389,4173.082614,10777.272990
23377.549723,2679.961312,-13648.660110,5187.639397
23377.552248,-2813.959378,12327.822035,12729.816232
23377.554774,593.420005,2220.539373,10375.278794
23377.557299,3043.670347,-10566.704602,5895.914886
23377.559824,-1741.974853,10260.423309,12059.825904
23377.562349,-287.138712,1875.972918,10183.852986
23377.564874,459.421939,-6049.055533,7618.747158
23377.567400,-574.277424,4804.787781,10413.563955
23377.569925,535.992262,1627.119368,9915.856854
23377.572450,1339.980656,-1205.982590,8786.444587
23377.574975,421.136778,2163.111630,9169.296203
23377.577501,-191.425808,2029.113565,9954.142016
23377.580026,-57.427742,2297.109696,9896.714274
23377.582551,191.425808,-1818.545176,8920.442653
23377.585080,535.992262,918.843878,9590.432981
23377.587609,19.142581,2545.963246,10260.423309
23377.590138,-229.710970,363.709035,9360.722011
23377.592667,1397.408398,-1818.545176,8863.014910
23377.595196,-3062.812928,1033.699363,10202.995566
23377.597725,650.847747,7082.754896,11370.692995
23377.600254,1416.550979,-13438.091722,5627.918755
23377.602783,-2488.535504,8078.169098,11983.255581
23377.605312,-1148.554848,4862.215523,11466.405899
23377.607841,2431.107762,-11504.691061,6163.911018
23377.610369,153.140646,-3541.377448,8250.452325
23377.612898,-5149.354235,15677.773675,14337.793019
23377.615427,2794.816797,-12136.396227,6087.340694
23377.617956,-535.992262,-2277.967115,8480.163294
23377.620485,-2392.822600,14050.654307,13840.085918
23377.623014,1990.828403,-12078.968485,6297.909083
23377.625543,-401.994197,-880.558717,9054.440718
23377.628072,-2450.250342,10643.274925,13016.954944
23377.630601,1071.984525,-7637.889739,7369.893608
23377.633130,-823.130974,-1895.115499,8690.731683
23377.635659,-1856.830338,7561.319416,11925.827838
23377.638188,-746.560651,1014.556782,10222.138147
23377.640717,1684.547110,-5781.059402,7810.172966
23377.643246,-746.560651,4153.940034,10624.132344
23377.645775,-1454.836141,-440.279358,9877.571693
23377.648304,248.853550,-2641.676150,8690.731683
23377.650833,-1263.410333,861.416136,9839.286531
23377.653362,-0.000000,2660.818731,10279.565890
23377.655891,-957.129040,-3369.094221,8882.157491
23377.658420,114.855485,3407.379382,10241.280728
23377.660948,1722.832272,-2584.248408,8614.161360
23377.663477,-1741.974853,2124.826469,9915.856854
23377.666006,1703.689691,4957.928427,10662.417506
23377.668535,861.416136,-10222.138147,6451.049730
23377.671064,-210.568389,1799.402595,9609.575562
23377.673593,-2699.103893,11810.972354,12748.958813
23377.676122,3062.812928,-12098.111066,5953.342629
23377.678651,-421.136778,3732.803256,10126.425243
23377.681180,-1971.685822,10987.841379,12614.960747
23377.683709,3235.096155,-13150.953010,5627.918755
23377.686242,-2029.113565,5876.772306,10911.271056
23377.688774,-861.416136,9016.155557,12404.392358
23377.691307,3235.096155,-11236.694930,5991.627790
23377.693839,-1263.410333,5398.207786,10624.132344
23377.696372,-937.986459,6719.045861,11504.691061
23377.698904,1761.117434,-7389.036189,7101.897477
23377.701437,727.418070,-4249.652938,7791.030386
23377.703969,-1186.840010,7848.458128,11523.833642
23377.706502,172.283227,-133.998066,9399.007173
23377.709034,1263.410333,-3732.803256,8020.741355
23377.711567,-153.140646,6929.614250,11064.411702
23377.714099,229.710970,-1378.265818,9226.723946
23377.716632,516.849682,-1473.978722,8767.302006
23377.719164,-1148.554848,3943.371645,10662.417506
23377.721697,1684.547110,669.990328,9265.009107
23377.724230,344.566454,-4728.217458,8135.596840
23377.726762,-2833.101958,8997.012976,12193.823970
23377.729295,2201.396792,-4479.363907,8250.452325
23377.731827,-1990.828403,-6489.334891,7580.461997
23377.734360,-2411.965181,11906.685258,12902.099459
23377.736892,-803.988394,803.988394,10202.995566
23377.739425,3445.664544,-14567.503989,5187.639397
23377.741957,-4173.082614,15103.496251,13820.943338
23377.744490,-306.281293,-1569.691626,9379.864592
23377.747022,2029.113565,-12748.958813,5685.346498
23377.749555,-3158.525832,15199.209155,13840.085918
23377.752087,1033.699363,-3503.092286,8805.587168
23377.754620,1359.123237,-10030.712339,6297.909083
23377.757152,-3541.377448,12844.671717,13514.662045
23377.759685,440.279358,-4077.369710,8748.159426
23377.762217,344.566454,-6527.620053,7427.321350
23377.764750,-1359.123237,1837.687757,9762.716208
23377.767283,-803.988394,4977.071008,11294.122672
23377.769815,899.701298,-7101.897477,7561.319416
23377.772348,-440.279358,1952.543242,9896.714274
23377.774880,-1818.545176,3694.518094,10777.272990
23377.777413,-172.283227,-5819.344563,8231.309744
23377.779945,-727.418070,2718.246474,10183.852986
23377.782478,-727.418070,976.271621,9934.999435
23377.785010,478.564520,-1990.828403,8767.302006
23377.787546,-1875.972918,287.138712,9934.999435
23377.790081,-727.418070,4211.367776,10681.560086
23377.792616,3254.238736,-5513.063270,7542.176835
23377.795152,-363.709035,-8059.026517,7140.182638
23377.797687,-1359.123237,14739.787216,13572.089787
23377.800223,2067.398726,-6221.338760,7733.602643
23377.802758,669.990328,-5034.498750,7408.178770
23377.805294,-3598.805190,17036.896912,14222.937534
23377.807829,3158.525832,-10853.843314,6431.907149
23377.810364,1359.123237,-3043.670347,8116.454259
23377.812900,-3043.670347,16386.049165,14146.367211
23377.815435,3043.670347,-11810.972354,6010.770371
23377.817971,-1244.267752,-535.992262,8977.870395
23377.820506,-1761.117434,14184.652373,13744.373014
23377.823041,3215.953574,-11294.122672,6106.483275
23377.825577,-497.707101,1493.121302,9379.864592
23377.828112,-1225.125171,10030.712339,12270.394293
23377.830648,1167.697429,191.425808,9724.431046
23377.833183,784.845813,-5513.063270,7503.891674
23377.835719,-1512.263883,8671.589102,11676.974288
23377.838254,306.281293,-1282.552914,9245.866526
23377.840789,2009.970984,-2852.244539,8154.739421
23377.843325,-1416.550979,6623.332957,11140.982026
23377.845860,631.705166,-382.851616,9360.722011
23377.848396,38.285162,-2679.961312,8537.591037
23377.850931,306.281293,4211.367776,10585.847182
23377.853466,-1378.265818,957.129040,9801.001370
23377.856002,2603.390989,-746.560651,8863.014910
23377.858537,1071.984525,-8518.448456,7216.752962
23377.861073,-3637.090352,6853.043926,11772.687192
23377.863608,-114.855485,4077.369710,10719.845248
23377.866144,1091.127106,-15792.629160,4919.643266
23377.868679,-2545.963246,14414.363342,14012.369146
23377.871214,555.134843,-95.712904,9590.432981
23377.873750,2660.818731,-14758.929797,5015.356170
23377.876285,-5570.491013,15294.922059,13974.083984
23377.878821,497.707101,-1569.691626,9399.007173
23377.881356,2239.681954,-12768.101394,5493.920690
23377.883891,-3081.955509,14950.355605,13859.228499
23377.886427,669.990328,-2871.387120,9073.583299
23377.888965,612.562586,-9552.147819,6527.620053
23377.891503,-1435.693560,3349.951640,10317.851051
23377.894040,-1091.127106,7159.325219,11849.257515
23377.896578,765.703232,-10068.997501,6853.043926
23377.899116,-1110.269686,4421.936165,10834.700733
23377.901654,-287.138712,3771.088418,10758.130410
23377.904192,976.271621,-7408.178770,7389.036189
23377.906729,-2411.965181,3215.953574,10681.560086
23377.909267,-574.277424,2737.389054,10528.419440
23377.911805,669.990328,-6891.329088,7446.463931
23377.914343,-555.134843,5398.207786,10815.558152
23377.916881,-1722.832272,-114.855485,10049.854920
23377.919418,-133.998066,-976.271621,9073.583299
23377.921956,2220.539373,1665.404530,9418.149754
23377.924494,-708.275490,-4479.363907,8231.309744
23377.927032,-689.132909,10968.698798,12576.675586
23377.929570,1761.117434,-5225.924558,7925.028451
23377.932108,478.564520,-3273.381317,8039.883936
23377.934645,-3330.809059,14490.933666,13495.519464
23377.937183,2603.390989,-9877.571693,6585.047795
23377.939721,1282.552914,-2029.113565,8461.020714
23377.942259,-2737.389054,14414.363342,13572.089787
23377.944797,3196.810994,-10604.989763,6297.909083
23377.947334,-1320.838075,114.855485,9226.723946
23377.949872,-1646.261949,12710.673651,13284.951075
23377.952410,3062.812928,-10298.708470,6374.479406
23377.954948,1761.117434,-8173.882002,6738.188442
23377.957486,-1148.554848,10624.132344,12308.679454
23377.960023,1397.408398,-1186.840010,9226.723946
23377.962561,191.425808,-4670.789715,7714.460062
23377.965099,-1627.119368,9494.720077,11964.113000
23377.967637,1339.980656,-2852.244539,8690.731683
23377.970175,2124.826469,-937.986459,8729.016845
23377.972713,-1569.691626,5532.205851,10987.841379
23377.975250,803.988394,-1588.834206,8920.442653
23377.977788,-918.843878,-823.130974,9131.011042
23377.980326,1110.269686,4823.930362,10509.276859
23377.982864,363.709035,-5245.067139,8193.024582
23377.985402,-2373.680019,650.847747,9820.143950
23377.987939,689.132909,6661.618118,11389.835576
23377.990480,-0.000000,-13572.089787,5857.629725
23377.993020,-2660.818731,11294.122672,12691.531070
23377.995560,-287.138712,-57.427742,9781.858789
23377.998100,3120.240670,-13150.953010,5666.203917
23378.000640,-3751.945837,15275.779478,13954.941403
23378.003181,172.283227,-4115.654872,8633.303941
23378.005721,1684.547110,-10930.413637,6163.911018
23378.008261,-3637.090352,15409.777544,14050.654307
23378.010801,1665.404530,-5474.778109,8135.596840
23378.013342,976.271621,-7944.171032,6814.758765
23378.015882,-2986.242605,12480.962682,11083.554283
23378.018422,-1684.547110,5149.354235,11504.691061
23378.020962,382.851616,-8288.737486,7140.182638
23378.023502,-1607.976787,3254.238736,10375.278794
23378.026043,-248.853550,3005.385186,10681.560086
23378.028583,1205.982590,-5723.631659,7829.315547
23378.031123,-1167.697429,2737.389054,10260.423309
23378.033663,-2603.390989,535.992262,10107.282662
23378.036204,803.988394,-2450.250342,8805.587168
23378.038744,-516.849682,-114.855485,9571.290400
23378.041284,535.992262,2565.105827,10202.995566
23378.043824,-1301.695494,-2201.396792,9054.440718
23378.046364,-76.570323,2565.105827,10088.140082
23378.048905,2411.965181,-842.273555,8977.870395
23378.051445,-1473.978722,-2718.246474,8575.876198
23378.053985,574.277424,11428.120738,12366.107197
23378.056525,2316.252277,-10394.421374,6565.905214
23378.059066,-574.277424,3943.371645,10298.708470
23378.061606,-2986.242605,11370.692995,12576.675586
23378.064146,2507.678085,-13438.091722,5513.063270
23378.066686,-1014.556782,7063.612315,11006.983960
23378.069226,-727.418070,9016.155557,12059.825904
23378.071767,3732.803256,-14108.082050,5130.211654
23378.074307,-2679.961312,9399.007173,11868.400096
23378.076847,-497.707101,5608.776174,11523.833642
23378.079387,2335.394858,-11332.407834,5991.627790
23378.081928,440.279358,-1186.840010,8614.161360
23378.084468,-708.275490,9054.440718,12021.540742
23378.087008,1761.117434,-5206.781978,8001.598774
23378.089548,-631.705166,708.275490,9245.866526
23378.092090,-1397.408398,6374.479406,11140.982026
23378.094633,1588.834206,-3617.947771,8269.594906
23378.097175,631.705166,2775.674216,9839.286531
23378.099717,-535.992262,2813.959378,10260.423309
23378.102259,899.701298,-2450.250342,8499.305875
23378.104801,-899.701298,1761.117434,9954.142016
23378.107343,363.709035,3445.664544,10260.423309
23378.109886,2143.969050,-5589.633594,7829.315547
23378.112428,-1550.549045,-5474.778109,8116.454259
23378.114970,-2067.398726,12863.814298,13227.523333
23378.117512,1397.408398,-12002.398162,6202.196179
23378.120054,-1033.699363,-1607.976787,8977.870395
23378.122596,-2756.531635,14548.361408,14050.654307
23378.125138,3349.951640,-15658.631094,5091.926493
23378.127681,-1627.119368,3924.229064,10624.132344
23378.130223,-4077.369710,11887.542677,13476.376883
23378.132765,2986.242605,-16175.480776,4728.217458
23378.135307,-1780.260014,5302.494882,10700.702667
23378.137849,-401.994197,9284.151688,12442.677520
23378.140391,2105.683888,-13916.656242,5455.635528
23378.142934,-1971.685822,6029.912952,7503.891674
23378.145476,-2392.822600,9188.438784,12232.109131
23378.148018,-210.568389,-4479.363907,8556.733618
23378.150560,-440.279358,-3407.379382,8537.591037
23378.153102,-593.420005,5647.061336,11179.267187
23378.155644,555.134843,-3503.092286,8786.444587
23378.158187,-1244.267752,-1186.840010,9379.864592
23378.160729,-918.843878,2392.822600,10356.136213
23378.163271,-57.427742,-3062.812928,8748.159426
23378.165813,-133.998066,1512.263883,9973.284597
23378.168355,-842.273555,669.990328,9628.718142
23378.170897,1301.695494,-1531.406464,9035.298138
23378.173440,-2565.105827,-306.281293,9647.860723
23378.175982,-1837.687757,8633.303941,11772.687192
23378.178524,2909.672282,-1301.695494,8824.729749
23378.181066,612.562586,-7695.317482,6967.899411
23378.183608,-1244.267752,15811.771741,13974.083984
23378.186150,1550.549045,-7408.178770,7082.754896
23378.188693,-229.710970,-4479.363907,7905.885870
23378.191235,-2699.103893,15754.343998,13954.941403
23378.193779,4498.506488,-10260.423309,6546.762634
23378.196322,287.138712,-746.560651,8786.444587
23378.198866,-2258.824534,13304.093656,13304.093656
23378.201410,1339.980656,-10853.843314,6393.621987
23378.203953,-784.845813,1971.685822,9360.722011
23378.206497,-287.138712,8193.024582,11849.257515
23378.209040,1244.267752,-1646.261949,9035.298138
23378.211584,669.990328,-2890.529701,8288.737486
23378.214128,-784.845813,7350.751027,11313.265253
23378.216671,612.562586,-3522.234867,8422.735552
23378.219215,325.423874,995.414202,9360.722011
23378.221759,-497.707101,6144.768437,11064.411702
23378.224302,1320.838075,-4402.793584,8307.880067
23378.226846,-57.427742,2277.967115,9762.716208
23378.229390,-612.562586,3005.385186,10394.421374
23378.231933,746.560651,-995.414202,8939.585234
23378.234477,1684.547110,-1684.547110,8977.870395
23378.237021,-2890.529701,2450.250342,10394.421374
23378.239564,-2048.256146,10145.567824,12423.534939
23378.242108,1110.269686,-9169.296203,6987.041992
23378.244652,-669.990328,-3637.090352,8441.878133
23378.247195,-2756.531635,14414.363342,13974.083984
23378.249739,2718.246474,-12806.386555,5761.916821
23378.252283,-727.418070,880.558717,9686.145885
23378.254826,-4651.647134,12634.103328,13782.658176
23378.257370,2565.105827,-14088.939469,5436.492947
23378.259914,-1033.699363,1971.685822,9686.145885
23378.262457,-861.416136,10260.423309,12768.101394
23378.265001,1856.830338,-11389.835576,6183.053598
23378.267545,-1454.836141,2813.959378,10030.712339
23378.270088,-1378.265818,5838.487144,11466.405899
23378.272632,-363.709035,-3081.955509,8882.157491
23378.275176,-497.707101,-3522.234867,8480.163294
23378.277719,-727.418070,5627.918755,11255.837510
23378.280263,191.425808,-4077.369710,8614.161360
23378.282807,-1282.552914,-1799.402595,9265.009107
23378.285350,-1301.695494,4977.071008,10949.556218
23378.287894,287.138712,-5091.926493,8327.022648
23378.290438,-38.285162,1627.119368,9781.858789
23378.292981,-1933.400661,1741.974853,10317.851051
23378.295509,114.855485,325.423874,9399.007173
23378.298038,2239.681954,-3694.518094,8231.309744
23378.300566,-2105.683888,4249.652938,10681.560086
23378.303094,-382.851616,13170.095590,13036.097525
23378.305622,1895.115499,-8499.305875,6833.901346
23378.308150,-57.427742,-995.414202,8824.729749
23378.310679,-3101.098090,14644.074312,13667.802691
23378.313207,2545.963246,-12251.251712,5953.342629
23378.315735,210.568389,2239.681954,9533.005238
23378.318263,-2029.113565,12500.105262,13036.097525
23378.320791,3349.951640,-12519.247843,5781.059402
23378.323319,-1493.121302,4211.367776,10375.278794
23378.325848,-976.271621,9150.153622,12346.964616
23378.328376,2029.113565,-10030.712339,6527.620053
23378.330904,-937.986459,4689.932296,10528.419440
23378.333432,631.705166,5436.492947,10892.128475
23378.335960,1454.836141,-3464.807125,8403.592971
23378.338489,-229.710970,-1416.550979,8824.729749
23378.341017,-957.129040,8250.452325,11523.833642
23378.343545,1244.267752,-2909.672282,8422.735552
23378.346073,191.425808,-363.709035,9207.581365
23378.348601,-382.851616,5915.057467,10968.698798
23378.351130,401.994197,-3771.088418,8384.450390
23378.353658,976.271621,2603.390989,9801.001370
23378.356186,248.853550,-1282.552914,9341.579430
23378.358714,-2258.824534,2852.244539,10394.421374
23378.361242,1167.697429,689.132909,9590.432981
23378.363770,-1607.976787,-8212.167163,7389.036189
23378.366299,-1454.836141,6029.912952,11351.550414
23378.368827,-1263.410333,5666.203917,11485.548480
23378.371355,3177.668413,-14452.648504,5168.496816
23378.373883,-3101.098090,11236.694930,12691.531070
23378.376411,-1531.406464,2373.680019,10853.843314
23378.378940,2603.390989,-13935.798822,5379.065205
23378.381468,-3120.240670,11619.546546,12729.816232
23378.383996,344.566454,1339.980656,10145.567824
23378.386524,1607.976787,-11102.696864,6029.912952
23378.389052,-2258.824534,9379.864592,12059.825904
23378.391581,-57.427742,306.281293,9992.427178
23378.394109,-306.281293,-7465.606512,7503.891674
23378.396641,-918.843878,6872.186507,9628.718142
23378.399172,-861.416136,5321.637462,11160.124606
23378.401704,574.277424,-6738.188442,7848.458128
23378.404236,-918.843878,401.994197,9686.145885
23378.406768,-1416.550979,4421.936165,10930.413637
23378.409300,306.281293,-5187.639397,8212.167163
23378.411831,-363.709035,1914.258080,9820.143950
23378.414363,-1359.123237,1225.125171,10241.280728
23378.416895,-1129.412267,689.132909,9628.718142
23378.419427,2699.103893,-823.130974,8863.014910
23378.421959,-1186.840010,-2450.250342,8767.302006
23378.424491,382.851616,11313.265253,12366.107197
23378.427022,1933.400661,-9992.427178,6393.621987
23378.429554,1550.549045,-9934.999435,6202.196179
23378.432086,-2833.101958,14280.365277,13418.949141
23378.434618,1205.982590,-4000.799387,8346.165229
23378.437150,2699.103893,-7389.036189,6680.760699
23378.439682,-2660.818731,14873.785282,13552.947206
23378.442213,1799.402595,-5819.344563,7925.028451
23378.444745,114.855485,-4555.934230,7848.458128
23378.447277,-2316.252277,12155.538808,12997.812363
23378.449809,2373.680019,-5245.067139,8020.741355
23378.452341,248.853550,-2660.818731,8212.167163
23378.454873,-631.705166,9207.581365,11964.113000
23378.457404,1473.978722,-4249.652938,8231.309744
23378.459936,1033.699363,-861.416136,7446.463931
23378.462468,-287.138712,6699.903280,10930.413637
23378.465000,-440.279358,1799.402595,10068.997501
23378.467532,1205.982590,-3790.230998,8193.024582
23378.470063,-1205.982590,4747.360038,10566.704602
23378.472595,1301.695494,478.564520,9533.005238
23378.475127,-1205.982590,-2163.111630,8901.300072
23378.477659,1282.552914,6087.340694,10968.698798
23378.480191,114.855485,-8958.727814,7331.608446
23378.482723,-2718.246474,8288.737486,11983.255581
23378.485254,-38.285162,-1569.691626,9284.151688
23378.487786,861.416136,-10547.562021,6546.762634
23378.490318,-3043.670347,14586.646570,13897.513661
23378.492850,-746.560651,8327.022648,11830.114934
23378.495382,2335.394858,-15505.490448,5053.641331
23378.497917,-4326.223261,8652.446522,12251.251712
23378.500451,-1454.836141,4402.793584,11198.409768
23378.502986,2947.957443,-12978.669782,5513.063270
23378.505521,-2220.539373,9494.720077,12117.253646
23378.508056,-38.285162,3426.521963,11026.126541
23378.510591,899.701298,-9762.716208,6699.903280
23378.513126,-2354.537438,5991.627790,11045.269122
23378.515661,-937.986459,1971.685822,10394.421374
23378.518195,899.701298,-7542.176835,7503.891674
23378.520730,-1167.697429,4364.508422,10911.271056
23378.523265,-1473.978722,57.427742,11102.696864
23378.525800,459.421939,-3024.527766,8671.589102
23378.528335,-765.703232,-1454.836141,9169.296203
23378.530870,-669.990328,3732.803256,10624.132344
23378.533405,-784.845813,-3349.951640,8786.444587
23378.535939,-880.558717,3694.518094,10298.708470
23378.538474,2335.394858,-1856.830338,8843.872330
23378.541009,-1263.410333,-823.130974,9054.440718
23378.543544,957.129040,9781.858789,11983.255581
23378.546079,2029.113565,-11542.976222,5953.342629
23378.548614,-976.271621,7599.604578,11389.835576
23378.551149,-1914.258080,7637.889739,11753.544611
23378.553683,2086.541307,-13304.093656,5704.489078
23378.556218,1282.552914,-2124.826469,8173.882002
23378.558753,-2258.824534,13801.800757,13170.095590
23378.561288,2852.244539,-9724.431046,6699.903280
23378.563823,-765.703232,-19.142581,9303.294269
23378.566358,-1837.687757,10566.704602,12729.816232
23378.568893,1761.117434,-6814.758765,7465.606512
23378.571427,-344.566454,574.277424,9150.153622
23378.573962,76.570323,6106.483275,11102.696864
23378.576497,1301.695494,-3503.092286,8422.735552
23378.579032,95.712904,2297.109696,9590.432981
23378.581567,-19.142581,3962.514226,10202.995566
23378.584102,-440.279358,-2163.111630,8901.300072
23378.586637,650.847747,3024.527766,9456.434915
23378.589171,-1033.699363,2507.678085,10107.282662
23378.591706,2086.541307,-229.710970,8977.870395
23378.594241,-1186.840010,-1607.976787,9111.868461
23378.596776,-363.709035,7235.895542,11389.835576
23378.599313,1569.691626,-9035.298138,6987.041992
23378.601851,-3483.949706,2641.676150,10432.706536
23378.604388,-1205.982590,8575.876198,12251.251712
23378.606925,1799.402595,-16500.904650,4843.072942
23378.609463,-1761.117434,9973.284597,12442.677520
23378.612000,-325.423874,5474.778109,11045.269122
23378.614537,2201.396792,-15677.773675,4881.358104
23378.617075,-5015.356170,11485.548480,13055.240106
23378.619612,-3713.660675,13840.085918,13897.513661
23378.622149,2163.111630,-10700.702667,6374.479406
23378.624686,-401.994197,-899.701298,8863.014910
23378.627224,-1282.552914,9954.142016,12729.816232
23378.629761,1071.984525,-6757.331022,7791.030386
23378.632298,-995.414202,-1301.695494,9073.583299
23378.634836,-1569.691626,5302.494882,11236.694930
23378.637373,-38.285162,-4747.360038,8518.448456
23378.639910,-535.992262,-612.562586,9494.720077
23378.642448,-114.855485,1837.687757,10183.852986
23378.644985,-95.712904,-1895.115499,8997.012976
23378.647522,-746.560651,631.705166,9801.001370
23378.650060,-1761.117434,459.421939,9896.714274
23378.652597,1244.267752,-287.138712,9341.579430
23378.655134,-1780.260014,-1799.402595,9131.011042
23378.657672,57.427742,9035.298138,11657.831707
23378.660209,3081.955509,-8212.167163,6929.614250
23378.662746,-1033.699363,3139.383251,10107.282662
23378.665283,-976.271621,11351.550414,12710.673651
23378.667821,2584.248408,-14108.082050,5072.783912
23378.670358,-1588.834206,7369.893608,11351.550414
23378.672895,-823.130974,7542.176835,11772.687192
23378.675433,4479.363907,-12997.812363,5245.067139
23378.677970,-1837.687757,10604.989763,11906.685258
23378.680507,-823.130974,4326.223261,11045.269122
23378.683045,1722.832272,-7982.456194,7216.752962
23378.685582,38.285162,-1837.687757,8422.735552
23378.688119,-918.843878,9399.007173,12098.111066
23378.690657,1780.260014,-4555.934230,8135.596840
23378.693194,555.134843,-248.853550,8920.442653
23378.695731,-344.566454,6910.471669,11179.267187
23378.698269,1110.269686,-2258.824534,8461.020714
23378.700808,-421.136778,784.845813,9437.292334
23378.703348,-995.414202,3943.371645,10681.560086
23378.705888,861.416136,-1588.834206,8843.872330
23378.708427,995.414202,76.570323,9111.868461
23378.710967,-1244.267752,4517.649069,10700.702667
23378.713507,516.849682,-784.845813,10834.700733
23378.716046,765.703232,-10164.710405,6719.045861
23378.718586,-3464.807125,6833.901346,11657.831707
23378.721126,-210.568389,3445.664544,10834.700733
23378.723666,1186.840010,-14720.644635,5340.780043
23378.726205,-2373.680019,13878.371080,13686.945272
23378.728745,459.421939,-555.134843,9322.436850
23378.731285,1320.838075,-11810.972354,5895.914886
23378.733824,-5398.207786,13591.232368,13782.658176
23378.736364,306.281293,-4709.074877,8729.016845
23378.738904,2009.970984,-8767.302006,6565.905214
23378.741443,-1952.543242,11772.687192,12902.099459
23378.743983,631.705166,-2373.680019,9054.440718
23378.746523,937.986459,-8518.448456,7178.467800
23378.749062,-1550.549045,1033.699363,9667.003304
23378.751602,-1780.260014,5015.356170,11217.552349
23378.754142,38.285162,-6106.483275,8059.026517
23378.756681,-708.275490,-535.992262,9590.432981
23378.759221,-478.564520,3637.090352,10681.560086
23378.761761,516.849682,-3483.949706,8441.878133
23378.764301,-325.423874,248.853550,9513.862658
23378.766840,-1914.258080,2718.246474,10604.989763
23378.769380,995.414202,-2565.105827,8729.016845
23378.771920,-1627.119368,-2584.248408,8939.585234
23378.774459,-229.710970,11523.833642,12327.822035
23378.776999,2450.250342,-9571.290400,9609.575562
23378.779539,1225.125171,-11026.126541,5857.629725
23378.782078,-1895.115499,16118.053034,13763.515595
23378.784618,650.847747,-4211.367776,8231.309744
23378.787158,1033.699363,-8422.735552,6929.614250
23378.789697,-2354.537438,15907.484645,13935.798822
23378.792237,3790.230998,-6412.764568,7446.463931
23378.794777,1033.699363,-3541.377448,7791.030386
23378.797317,-2699.103893,12921.242040,13208.380752
23378.799856,1416.550979,-7255.038123,7599.604578
23378.802398,478.564520,-3235.096155,8135.596840
23378.804939,-1091.127106,9571.290400,12232.109131
23378.807481,1837.687757,-2813.959378,8633.303941
23378.810022,1531.406464,-5111.069074,7599.604578
23378.812564,344.566454,4402.793584,10126.425243
23378.815105,-1263.410333,4192.225195,10413.563955
23378.817647,401.994197,-3503.092286,8403.592971
23378.820188,287.138712,1646.261949,9839.286531
23378.822730,-287.138712,3235.096155,10509.276859
23378.825272,2277.967115,153.140646,8863.014910
23378.827813,401.994197,-3962.514226,8250.452325
23378.830355,-3024.527766,8595.018779,12174.681389
23378.832896,1818.545176,-4670.789715,8288.737486
23378.835438,-1990.828403,-7542.176835,7484.749093
23378.837979,-2660.818731,16366.906584,14586.646570
23378.840521,1761.117434,-13208.380752,10662.417506
23378.843062,3464.807125,-16232.908518,4479.363907
23378.845604,-3369.094221,15543.775610,13782.658176
23378.848145,-593.420005,-1416.550979,9686.145885
23378.850687,1895.115499,-13591.232368,5627.918755
23378.853228,-3426.521963,14242.080115,13763.515595
23378.855770,555.134843,-1627.119368,9360.722011
23378.858311,1646.261949,-9360.722011,6221.338760
23378.860853,-1588.834206,9705.288466,12155.538808
23378.863394,210.568389,612.562586,10068.997501
23378.865936,133.998066,-7006.184573,7542.176835
23378.868478,-1531.406464,4287.938099,10911.271056
23378.871019,-1301.695494,-133.998066,10183.852986
23378.873561,1129.412267,-2986.242605,8786.444587
23378.876102,669.990328,-1397.408398,8709.874264
23378.878644,-1205.982590,3885.943902,10643.274925
23378.881185,-1263.410333,-842.273555,9360.722011
23378.883727,631.705166,-3885.943902,8537.591037
23378.886268,-2852.244539,3751.945837,10834.700733
23378.888810,2105.683888,5474.778109,10624.132344
23378.891351,2431.107762,-11849.257515,5915.057467
23378.893893,-2086.541307,13763.515595,13112.667848
23378.896434,-0.000000,1875.972918,9992.427178
23378.898976,1875.972918,-12997.812363,5264.209720
23378.901517,-3369.094221,16500.904650,14242.080115
23378.904044,-2182.254211,12480.962682,13246.665914
23378.906570,5149.354235,-13706.087853,5034.498750
23378.909097,-995.414202,7121.040058,10738.987829
23378.911623,-1933.400661,8977.870395,12327.822035
23378.914150,1378.265818,-11447.263318,6163.911018
23378.916676,-1531.406464,5379.065205,10911.271056
23378.919203,363.709035,6049.055533,11351.550414
23378.921729,1990.828403,-7503.891674,7082.754896
23378.924255,-382.851616,4881.358104,10413.563955
23378.926782,114.855485,5245.067139,10624.132344
23378.929308,823.130974,-4555.934230,7676.174901
23378.931835,-1339.980656,3924.229064,10509.276859
23378.934361,-248.853550,2660.818731,10413.563955
23378.936888,899.701298,-2833.101958,8671.589102
23378.939414,1454.836141,2507.678085,9494.720077
23378.941940,861.416136,-593.420005,9284.151688
23378.944467,-2871.387120,1684.547110,10164.710405
23378.946993,727.418070,2163.111630,10183.852986
23378.949520,-1301.695494,-10260.423309,6967.899411
23378.952046,-1875.972918,11466.405899,13131.810429
23378.954573,401.994197,-4613.361973,8365.307810
23378.957099,2354.537438,-8614.161360,6738.188442
23378.959626,-3024.527766,14644.074312,13438.091722
23378.962152,823.130974,-7293.323285,7599.604578
23378.964678,57.427742,-6470.192310,7810.172966
23378.967205,-1895.115499,6967.899411,11619.546546
23378.969731,-344.566454,4747.360038,11121.839445
23378.972258,1473.978722,-8595.018779,6719.045861
23378.974784,-1512.263883,4326.223261,10317.851051
23378.977311,-746.560651,3158.525832,10738.987829
23378.979837,-133.998066,-5704.489078,7982.456194
23378.982363,-1186.840010,2143.969050,10336.993632
23378.984890,-1186.840010,-19.142581,10183.852986
23378.987416,1129.412267,-2967.100024,8748.159426
23378.989943,-210.568389,1339.980656,9667.003304
23378.992469,-191.425808,1033.699363,9686.145885
23378.994996,-1493.121302,-746.560651,9379.864592
23378.997522,535.992262,-114.855485,9552.147819
23379.000049,1531.406464,-4996.213589,8231.309744
23379.002575,-1627.119368,7216.752962,11313.265253
23379.005105,2488.535504,2086.541307,9609.575562
23379.007636,1148.554848,-9781.858789,6240.481341
23379.010166,-1761.117434,15160.923994,13476.376883
23379.012697,516.849682,-3694.518094,8365.307810
23379.015227,1071.984525,-7982.456194,7063.612315
23379.017758,-2277.967115,14395.220762,13572.089787
23379.020288,3311.666478,-5072.783912,7867.600709
23379.022819,1493.121302,-3426.521963,7599.604578
23379.025349,-2813.959378,11657.831707,12768.101394
23379.027880,784.845813,-4823.930362,8384.450390
23379.030410,1339.980656,-7255.038123,7427.321350
23379.032941,-363.709035,4268.795518,10298.708470
23379.035471,823.130974,3407.379382,10202.995566
23379.038002,1320.838075,-2239.681954,8461.020714
23379.040532,478.564520,4498.506488,9896.714274
23379.043063,-1205.982590,497.707101,9533.005238
23379.045593,-497.707101,57.427742,9475.577496
23379.048124,-267.996131,1799.402595,10049.854920
23379.050654,2354.537438,-784.845813,9150.153622
23379.053184,-1397.408398,1971.685822,9801.001370
23379.055715,1454.836141,4594.219392,10336.993632
23379.058245,-382.851616,-9973.284597,6891.329088
23379.060776,-3732.803256,10585.847182,12806.386555
23379.063306,-1454.836141,10911.271056,13170.095590
23379.065837,2239.681954,-16768.900781,4919.643266
23379.068367,-1473.978722,7484.749093,11696.116869
23379.070898,-1071.984525,9169.296203,12078.968485
23379.073428,2507.678085,-16807.185942,4441.078746
23379.075959,-4747.360038,10241.280728,12653.245909
23379.078489,-1856.830338,4039.084549,11389.835576
23379.081020,3522.234867,-14624.931731,5130.211654
23379.083550,-1129.412267,8269.594906,11638.689126
23379.086081,-803.988394,4957.928427,11064.411702
23379.088611,-76.570323,-8269.594906,7140.182638
23379.091142,-1990.828403,3503.092286,10432.706536
23379.093672,-1971.685822,3694.518094,10815.558152
23379.096202,-784.845813,-4364.508422,9111.868461
23379.098733,1205.982590,746.560651,9858.429112
23379.101263,440.279358,-133.998066,9494.720077
23379.103794,-229.710970,-95.712904,9265.009107
23379.106328,-2718.246474,2297.109696,10088.140082
23379.108861,1033.699363,-2297.109696,8997.012976
23379.111395,-1741.974853,-2794.816797,9226.723946
23379.113929,229.710970,10987.841379,12270.394293
23379.116463,3483.949706,-9915.856854,6297.909083
23379.118997,-976.271621,3828.516160,10049.854920
23379.121530,-1512.263883,12768.101394,12959.527202
23379.124064,3005.385186,-14969.498186,4785.645200
23379.126598,976.271621,-8843.872330,6872.186507
23379.129132,-2450.250342,16462.619488,14414.363342
23379.131666,3847.658741,-7369.893608,7389.036189
23379.134199,1148.554848,-3751.945837,7523.034254
23379.136733,-2737.389054,14280.365277,13418.949141
23379.139267,1799.402595,-7197.610381,7427.321350
23379.141801,535.992262,-4460.221326,7905.885870
23379.144335,-1282.552914,10968.698798,12825.529136
23379.146868,1837.687757,-3369.094221,8518.448456
23379.149402,1359.123237,-2507.678085,8097.311678
23379.151936,-1129.412267,9858.429112,11715.259450
23379.154470,-210.568389,-2086.541307,8709.874264
23379.157004,1339.980656,-5245.067139,7848.458128
23379.159537,-669.990328,2603.390989,10298.708470
23379.162071,1818.545176,4957.928427,10872.985894
23379.164605,803.988394,-7542.176835,7235.895542
23379.167139,-1569.691626,8882.157491,11485.548480
23379.169673,229.710970,-3349.951640,8786.444587
23379.172206,-2029.113565,-5417.350366,8154.739421
23379.174740,-1569.691626,11389.835576,13208.380752
23379.177274,1435.693560,-12442.677520,6317.051664
23379.179808,-344.566454,2277.967115,10279.565890
23379.182342,-1512.263883,9954.142016,12174.681389
23379.184875,1512.263883,-13036.097525,5532.205851
23379.187395,-3464.807125,6144.768437,7695.317482
23379.189915,-3330.809059,11734.402030,13418.949141
23379.192435,1397.408398,-6527.620053,8059.026517
23379.194955,306.281293,-4249.652938,7848.458128
23379.197475,-1741.974853,9456.434915,12212.966550
23379.199995,401.994197,-3598.805190,8652.446522
23379.202515,-957.129040,-3598.805190,8461.020714
23379.205035,-2469.392923,4728.217458,11217.552349
23379.207555,287.138712,-4192.225195,8901.300072
23379.210074,957.129040,-1282.552914,9226.723946
23379.212594,-1014.556782,3388.236802,10566.704602
23379.215114,19.142581,-1550.549045,8671.589102
23379.217634,-2373.680019,-1091.127106,9207.581365
23379.220154,-1952.543242,5321.637462,11179.267187
23379.222674,3330.809059,-1493.121302,9073.583299
23379.225194,172.283227,-5685.346498,7733.602643
23379.227714,-287.138712,14931.213024,13227.523333
23379.230234,1665.404530,-9590.432981,6297.909083
23379.232754,-593.420005,440.279358,8977.870395
23379.235274,-2909.672282,14529.218827,13744.373014
23379.237794,2641.676150,-13036.097525,5991.627790
23379.240314,76.570323,3005.385186,9973.284597
23379.242834,-1378.265818,11160.124606,12557.533005
23379.245354,3388.236802,-11370.692995,5800.201982
23379.247873,-1320.838075,4134.797453,10068.997501
23379.250393,-803.988394,7561.319416,12327.822035
23379.252913,1244.267752,-1818.545176,9169.296203
23379.255433,765.703232,-3292.523898,8231.309744
23379.257953,-287.138712,6776.473603,11045.269122
23379.260473,1052.841944,-306.281293,8939.585234
23379.262993,-287.138712,-287.138712,8863.014910
23379.265513,-746.560651,5111.069074,10643.274925
23379.268033,57.427742,-1512.263883,9169.296203
23379.270553,1569.691626,-1091.127106,9284.151688
23379.273073,-1473.978722,4345.365842,10834.700733
23379.275593,2316.252277,0.000000,9150.153622
23379.278113,-1799.402595,-5876.772306,7752.745224
23379.280633,-2488.535504,12251.251712,12997.812363
23379.283153,-363.709035,3005.385186,10949.556218
23379.285672,1703.689691,-15294.922059,5417.350366
23379.288197,-2756.531635,13342.378818,13782.658176
23379.290722,535.992262,-133.998066,9494.720077
23379.293247,1531.406464,-12040.683323,5493.920690
23379.295772,-5168.496816,14854.642701,13801.800757
23379.298297,-19.142581,-4785.645200,8709.874264
23379.300822,1990.828403,-9915.856854,6546.762634
23379.303347,-1473.978722,11542.976222,12997.812363
23379.305872,421.136778,-2335.394858,8920.442653
23379.308397,-861.416136,-5302.494882,7733.602643
23379.310922,-2297.109696,6719.045861,11523.833642
23379.313447,-1895.115499,-3464.807125,10432.706536
23379.315972,689.132909,-6489.334891,8059.026517
23379.318497,114.855485,3445.664544,10700.702667
23379.321021,-382.851616,555.134843,9896.714274
23379.323546,-57.427742,-2967.100024,8212.167163
23379.326071,-3292.523898,2411.965181,10183.852986
23379.328596,-976.271621,3617.947771,10604.989763
23379.331121,3732.803256,-7121.040058,7503.891674
23379.333646,-1473.978722,4000.799387,10509.276859
23379.336171,1359.123237,8327.022648,11753.544611
23379.338696,1914.258080,-13476.376883,5072.783912
23379.341221,-1933.400661,11504.691061,12366.107197
23379.343746,-1205.982590,5704.489078,11121.839445
23379.346271,2469.392923,-11121.839445,6508.477472
23379.348796,842.273555,-803.988394,8901.300072
23379.351321,-1971.685822,13284.951075,13227.523333
23379.353846,3101.098090,-10222.138147,6163.911018
23379.356370,-784.845813,746.560651,9265.009107
23379.358895,-1703.689691,10241.280728,12672.388490
23379.361420,1473.978722,-6527.620053,7695.317482
23379.363945,287.138712,-574.277424,8863.014910
23379.366470,-440.279358,7925.028451,11696.116869
23379.368995,1703.689691,-1990.828403,8595.018779
23379.371520,516.849682,-1033.699363,8614.161360
23379.374045,-1607.976787,6125.625856,10930.413637
23379.376570,-995.414202,-593.420005,10815.558152
23379.379095,3062.812928,-2852.244539,8537.591037
23379.381620,-593.420005,-2009.970984,9016.155557
23379.384145,-1665.404530,10049.854920,12174.681389
23379.386670,1435.693560,-9934.999435,6489.334891
23379.389199,-2679.961312,325.423874,9590.432981
23379.391728,-1914.258080,12002.398162,13514.662045
23379.394257,2277.967115,-17400.605947,4785.645200
23379.396786,-1091.127106,6412.764568,11542.976222
23379.399315,-1607.976787,9647.860723,12385.249778
23379.401845,2565.105827,-16290.336261,4498.506488
23379.404374,-4134.797453,9188.438784,11964.113000
23379.406903,-1818.545176,5321.637462,11657.831707
23379.409432,1493.121302,-8480.163294,7503.891674
23379.411961,191.425808,-4211.367776,7905.885870
23379.414490,-1550.549045,9858.429112,12385.249778
23379.417020,516.849682,-5245.067139,8288.737486
23379.419549,-1110.269686,-2373.680019,8748.159426
23379.422078,-2737.389054,4728.217458,11179.267187
23379.424607,937.986459,-4632.504554,8499.305875
23379.427136,555.134843,-1550.549045,9265.009107
23379.429665,-669.990328,4058.227130,10853.843314
23379.432195,-823.130974,-1607.976787,8920.442653
23379.434724,-363.709035,-1971.685822,8556.733618
23379.437253,-2756.531635,3503.092286,10738.987829
23379.439782,-114.855485,2967.100024,12251.251712
23379.442311,3426.521963,-8537.591037,6833.901346
23379.444840,-555.134843,2086.541307,9590.432981
23379.447369,-1627.119368,13514.662045,13150.953010
23379.449899,2622.533570,-13495.519464,5015.356170
23379.452428,-937.986459,4977.071008,10566.704602
23379.454957,-1531.406464,9724.431046,12576.675586
23379.457486,4728.217458,-13361.521398,5570.491013
23379.460015,-1397.408398,8154.739421,11217.552349
23379.462544,-1244.267752,7255.038123,11562.118803
23379.465074,1339.980656,-10662.417506,6068.198114
23379.467603,-1129.412267,6163.911018,11064.411702
23379.470132,727.418070,4670.789715,10987.841379
23379.472661,2258.824534,-3330.809059,8384.450390
23379.475190,1148.554848,-803.988394,8805.587168
23379.477719,-2009.970984,7484.749093,11370.692995
23379.480249,114.855485,-2411.965181,8441.878133
23379.482778,76.570323,210.568389,9131.011042
23379.485307,765.703232,3790.230998,10681.560086
23379.487836,-38.285162,-1148.554848,9399.007173
23379.490369,1837.687757,842.273555,9456.434915
23379.492902,-2373.680019,-2947.957443,8786.444587
23379.495435,-1990.828403,8958.727814,11906.685258
23379.497969,669.990328,-10279.565890,6680.760699
23379.500502,-153.140646,-976.271621,9513.862658
23379.503035,-2565.105827,12997.812363,13610.374949
23379.505568,555.134843,-2220.539373,9016.155557
23379.508101,1014.556782,-9973.284597,6317.051664
23379.510634,-5168.496816,14165.509792,13610.374949
23379.513167,516.849682,-5819.344563,8212.167163
23379.515701,2335.394858,-8059.026517,6891.329088
23379.518234,-1952.543242,10777.272990,12863.814298
23379.520767,306.281293,-2201.396792,8958.727814
23379.523300,-478.564520,-5627.918755,7733.602643
23379.525833,-2584.248408,5627.918755,11274.980091
23379.528366,-1033.699363,-1397.408398,9609.575562
23379.530899,1914.258080,-4479.363907,8250.452325
23379.533433,172.283227,1837.687757,9188.438784
23379.535966,-803.988394,3081.955509,10758.130410
23379.538499,-1818.545176,421.136778,9533.005238
23379.541032,363.709035,-3560.520029,8116.454259
23379.543565,-2737.389054,1741.974853,10375.278794
23379.546098,1416.550979,8039.883936,11542.976222
23379.548631,3675.375514,-12614.960747,5857.629725
23379.551165,-1741.974853,10470.991698,12155.538808
23379.553698,-1167.697429,7752.745224,11562.118803
23379.556231,2679.961312,-15256.636898,4421.936165
23379.558764,-2565.105827,13514.662045,12997.812363
23379.561297,-153.140646,2622.533570,10681.560086
23379.563830,4192.225195,-13610.374949,5283.352301
23379.566363,-325.423874,1837.687757,9379.864592
23379.568897,-2450.250342,12825.529136,13284.951075
23379.571430,1665.404530,-10547.562021,6259.623922
23379.573963,-287.138712,1359.123237,9533.005238
23379.576496,-210.568389,9169.296203,12155.538808
23379.579029,2833.101958,-6757.331022,7293.323285
23379.581562,57.427742,2603.390989,9686.145885
23379.584095,-2048.256146,6814.758765,11351.550414
23379.586629,669.990328,-4823.930362,7771.887805
23379.589162,-287.138712,2852.244539,9820.143950
23379.591698,937.986459,3771.088418,10585.847182
23379.594234,-76.570323,-3560.520029,8709.874264
23379.596771,1359.123237,4077.369710,10356.136213
23379.599307,38.285162,-4709.074877,8154.739421
23379.601844,-3292.523898,1818.545176,10222.138147
23379.604380,-535.992262,5551.348432,11447.263318
23379.606917,1569.691626,-13629.517530,5915.057467
23379.609453,-1722.832272,8997.012976,12538.390424
23379.611989,-497.707101,3751.945837,10624.132344
23379.614526,1684.547110,-13208.380752,5474.778109
23379.617062,-5034.498750,11944.970419,12921.242040
23379.619599,-555.134843,-133.998066,9877.571693
23379.622135,3235.096155,-11791.829773,5857.629725
23379.624672,-1167.697429,8920.442653,12193.823970
23379.627208,-689.132909,1933.400661,10356.136213
23379.629744,-0.000000,-5034.498750,8365.307810
23379.632281,-1741.974853,-2297.109696,8863.014910
23379.634817,-1914.258080,3158.525832,10662.417506
23379.637354,210.568389,-1627.119368,9303.294269
23379.639890,765.703232,-1435.693560,9265.009107
23379.642426,76.570323,976.271621,9820.143950
23379.644963,-2545.963246,95.712904,9724.431046
23379.647499,-325.423874,1454.836141,9552.147819
23379.650036,1282.552914,-5761.916821,7867.600709
23379.652572,-1378.265818,9303.294269,12040.683323
23379.655109,2909.672282,210.568389,9303.294269
23379.657645,880.558717,-9686.145885,6144.768437
23379.660181,-2507.678085,16960.326589,11102.696864
23379.662718,-2679.961312,10719.845248,12557.533005
23379.665254,3464.807125,-14758.929797,5206.781978
23379.667791,-1186.840010,8901.300072,11715.259450
23379.670327,57.427742,6527.620053,11504.691061
23379.672864,3445.664544,-12576.675586,5455.635528
23379.675400,-2526.820666,9322.436850,11676.974288
23379.677936,-440.279358,4326.223261,10949.556218
23379.680473,2009.970984,-8882.157491,6680.760699
23379.683009,-535.992262,6814.758765,11064.411702
23379.685546,765.703232,4517.649069,10643.274925
23379.688082,1244.267752,-5781.059402,7523.034254
23379.690618,-1301.695494,5340.780043,10719.845248
23379.693158,-1301.695494,7216.752962,11198.409768
23379.695697,1550.549045,-3637.090352,8384.450390
23379.698236,-287.138712,1473.978722,9801.001370
23379.700775,1320.838075,3503.092286,10681.560086
23379.703314,-1914.258080,-6183.053598,7963.313613
23379.705853,-1531.406464,9092.725880,11715.259450
23379.708392,-57.427742,-9437.292334,6948.756830
23379.710931,-153.140646,287.138712,9896.714274
23379.713470,-1301.695494,8499.305875,12346.964616
23379.716009,2526.820666,-13227.523333,5800.201982
23379.718548,-2105.683888,6680.760699,11255.837510
23379.721087,-1952.543242,6451.049730,11581.261384
23379.723627,-574.277424,-13342.378818,7312.465866
23379.726166,593.420005,-4709.074877,7944.171032
23379.728705,-1761.117434,11619.546546,13170.095590
23379.731244,1225.125171,-5953.342629,7829.315547
23379.733783,-689.132909,-4709.074877,8116.454259
23379.736322,-3081.955509,8518.448456,12366.107197
23379.738861,421.136778,-5321.637462,8403.592971
23379.741400,995.414202,-3139.383251,8403.592971
23379.743939,-1320.838075,6297.909083,11638.689126
23379.746478,1167.697429,-4383.651003,8480.163294
23379.749017,-1627.119368,-2029.113565,8863.014910
23379.751556,-803.988394,6393.621987,11255.837510
23379.754096,-363.709035,-6872.186507,7848.458128
23379.756635,-287.138712,1435.693560,9647.860723
23379.759174,2029.113565,6412.764568,10930.413637
23379.761713,861.416136,-9245.866526,6451.049730
23379.764252,-1454.836141,10681.560086,12059.825904
23379.766791,-382.851616,1129.412267,9513.862658
23379.769330,2143.969050,-8690.731683,6891.329088
23379.771869,-1761.117434,11734.402030,12787.243974
23379.774408,2488.535504,-2545.963246,8767.302006
23379.776947,1856.830338,-5551.348432,7408.178770
23379.779486,-2392.822600,10892.128475,12500.105262
23379.782025,516.849682,-2833.101958,8595.018779
23379.784564,880.558717,-3388.236802,8154.739421
23379.787104,57.427742,7408.178770,10145.567824
23379.789643,478.564520,4230.510357,10394.421374
23379.792182,574.277424,-3464.807125,8480.163294
23379.794723,-555.134843,3445.664544,10049.854920
23379.797265,-363.709035,2603.390989,9877.571693
23379.799807,1416.550979,-2392.822600,8499.305875
23379.802349,-880.558717,4000.799387,10624.132344
23379.804890,2277.967115,478.564520,9667.003304
23379.807432,-1684.547110,-5972.485210,8097.311678
23379.809974,-2239.681954,11198.409768,12500.105262
23379.812516,478.564520,-10949.556218,6451.049730
23379.815057,-95.712904,-1091.127106,9379.864592
23379.817599,-1837.687757,11045.269122,13208.380752
23379.820141,612.562586,-2316.252277,8939.585234
23379.822683,1225.125171,-9360.722011,6585.047795
23379.825224,-4957.928427,13744.373014,13572.089787
23379.827766,650.847747,-6106.483275,8020.741355
23379.830308,1033.699363,-7197.610381,7101.897477
23379.832850,-2143.969050,11581.261384,13246.665914
23379.835391,535.992262,-3943.371645,8595.018779
23379.837933,-555.134843,-6451.049730,7599.604578
23379.840475,-3196.810994,8116.454259,12117.253646
23379.843017,803.988394,-3694.518094,8786.444587
23379.845558,1263.410333,-4785.645200,8001.598774
23379.848100,-1914.258080,6680.760699,11753.544611
23379.850642,-1512.263883,-2507.678085,11179.267187
23379.853184,-727.418070,-8346.165229,7369.893608
23379.855725,-2890.529701,6087.340694,10968.698798
23379.858267,2775.674216,1473.978722,9686.145885
23379.860809,803.988394,-8097.311678,7044.469734
23379.863351,363.709035,14720.644635,13284.951075
23379.865892,861.416136,-7637.889739,6987.041992
23379.868434,-478.564520,-803.988394,8748.159426
23379.870976,-3311.666478,14012.369146,13342.378818
23379.873517,2986.242605,-10892.128475,6508.477472
23379.876059,-38.285162,1761.117434,9552.147819
23379.878601,-823.130974,10279.565890,12423.534939
23379.881143,3101.098090,-10604.989763,6202.196179
23379.883684,287.138712,-5647.061336,7446.463931
23379.886226,-1473.978722,9437.292334,12078.968485
23379.888768,1435.693560,-1665.404530,8920.442653
23379.891310,1186.840010,-2009.970984,8346.165229
23379.893851,-1071.984525,7006.184573,11255.837510
23379.896395,210.568389,-2335.394858,8882.157491
23379.898939,306.281293,153.140646,9073.583299
23379.901483,-918.843878,4441.078746,10470.991698
23379.904027,2431.107762,-95.712904,9092.725880
23379.906570,306.281293,-3177.668413,8729.016845
23379.909114,-1741.974853,8039.883936,11772.687192
23379.911658,1244.267752,-6910.471669,7676.174901
23379.914202,-1186.840010,-12806.386555,5915.057467
23379.916746,-2220.539373,12748.958813,13342.378818
23379.919289,727.418070,-3790.230998,8805.587168
23379.921833,2584.248408,-11447.263318,6125.625856
23379.924377,-3464.807125,15448.062706,13859.228499
23379.926921,899.701298,-5876.772306,8001.598774
23379.929465,-76.570323,-7484.749093,7197.610381
23379.932008,-3503.092286,14031.511726,13763.515595
23379.934552,1780.260014,-7484.749093,7561.319416
23379.937096,842.273555,-5647.061336,7542.176835
23379.939640,-2182.254211,10260.423309,12710.673651
23379.942184,229.710970,-5187.639397,8499.305875
23379.944727,-746.560651,-5513.063270,8039.883936
23379.947271,-784.845813,3771.088418,10356.136213
23379.949815,-1512.263883,3445.664544,10892.128475
23379.952359,1780.260014,-6489.334891,7637.889739
23379.954903,-2316.252277,1301.695494,10049.854920
23379.957446,-918.843878,6546.762634,11313.265253
23379.959990,2201.396792,-10145.567824,6604.190376
23379.962534,-1435.693560,8365.307810,11619.546546
23379.965078,2258.824534,5149.354235,10815.558152
23379.967622,1856.830338,-12634.103328,5264.209720
23379.970165,-2163.111630,15448.062706,13399.806560
23379.972709,-38.285162,-612.562586,9169.296203
23379.975253,2277.967115,-10662.417506,6106.483275
23379.977797,-765.703232,4862.215523,10470.991698
23379.980341,-248.853550,9207.581365,12155.538808
23379.982884,3637.090352,-12289.536874,5608.776174
23379.985428,-2201.396792,6661.618118,10949.556218
23379.987972,-976.271621,7427.321350,11734.402030
23379.990516,2220.539373,-9686.145885,6374.479406
23379.993060,-421.136778,6297.909083,10777.272990
23379.995603,-19.142581,6814.758765,11447.263318
23379.998132,1646.261949,-8059.026517,6910.471669
23380.000661,-421.136778,5225.924558,10566.704602
23380.003190,-1837.687757,4709.074877,10815.558152
23380.005719,2794.816797,-4709.074877,7599.604578
23380.008248,-918.843878,842.273555,7676.174901
23380.010776,-3158.525832,9513.862658,12480.962682
23380.013305,1244.267752,-2392.822600,8997.012976
23380.015834,-1856.830338,-10413.563955,6546.762634
23380.018363,-2737.389054,15888.342064,14414.363342
23380.020892,1473.978722,-10088.140082,6910.471669
23380.023421,1588.834206,-7025.327154,7446.463931
23380.025949,-3464.807125,16539.189811,14376.078181
23380.028478,1799.402595,-11255.837510,6393.621987
23380.031007,-1588.834206,-2450.250342,8614.161360
23380.033536,-3235.096155,13342.378818,13629.517530
23380.036065,2373.680019,-11830.114934,6259.623922
23380.038593,-19.142581,-823.130974,8958.727814
23380.041122,-2201.396792,8575.876198,12078.968485
23380.043651,-861.416136,-689.132909,9896.714274
23380.046180,823.130974,-7944.171032,7216.752962
23380.048709,-1397.408398,6527.620053,11255.837510
23380.051238,-918.843878,-555.134843,9801.001370
23380.053766,1110.269686,-3981.656806,8173.882002
23380.056295,-2450.250342,2163.111630,10528.419440
23380.058824,-803.988394,3637.090352,10528.419440
23380.061353,3043.670347,-7140.182638,7235.895542
23380.063882,-1397.408398,4977.071008,10624.132344
23380.066411,2029.113565,7867.600709,11466.405899
23380.068939,1856.830338,-13170.095590,5225.924558
23380.071468,-1895.115499,12040.683323,8231.309744
23380.073997,-3464.807125,15811.771741,13993.226565
23380.076526,2737.389054,-10815.558152,6489.334891
23380.079055,287.138712,-708.275490,8882.157491
23380.081584,-1301.695494,12423.534939,13055.240106
23380.084112,3292.523898,-10375.278794,6278.766502
23380.086641,-976.271621,1569.691626,9456.434915
23380.089170,-1493.121302,10126.425243,12595.818166
23380.091699,2143.969050,-7159.325219,7312.465866
23380.094228,95.712904,2105.683888,9475.577496
23380.096757,-803.988394,8231.309744,11657.831707
23380.099290,1473.978722,-6029.912952,7676.174901
23380.101822,574.277424,2660.818731,9667.003304
23380.104355,-287.138712,5589.633594,10777.272990
23380.106888,-631.705166,1588.834206,9877.571693
23380.109421,2660.818731,-3215.953574,8403.592971
23380.111954,-2871.387120,-114.855485,9801.001370
23380.114487,-1014.556782,8652.446522,11925.827838
23380.117020,574.277424,-13974.083984,5493.920690
23380.119553,-1091.127106,4019.941968,10911.271056
23380.122086,-1435.693560,8748.159426,12595.818166
23380.124619,3369.094221,-16175.480776,4881.358104
23380.127152,-2277.967115,8231.309744,11657.831707
23380.129685,-1761.117434,7389.036189,11887.542677
23380.132218,2258.824534,-14873.785282,5072.783912
23380.134751,-2794.816797,9418.149754,8059.026517
23380.137284,-2297.109696,12078.968485,13399.806560
23380.139817,1052.841944,-7676.174901,7350.751027
23380.142350,-1282.552914,-3579.662610,8480.163294
23380.144883,-2258.824534,8250.452325,12366.107197
23380.147416,1339.980656,-6489.334891,7829.315547
23380.149949,-267.996131,-1167.697429,9035.298138
23380.152481,-765.703232,5608.776174,11274.980091
23380.155014,-478.564520,-5206.781978,8212.167163
23380.157547,650.847747,229.710970,9418.149754
23380.160080,-3101.098090,1665.404530,10317.851051
23380.162613,1473.978722,4192.225195,10260.423309
23380.165146,2105.683888,-7561.319416,7216.752962
23380.167679,248.853550,-2450.250342,8307.880067
23380.170212,-1607.976787,13744.373014,13112.667848
23380.172745,1741.974853,-8135.596840,6776.473603
23380.175278,593.420005,-1780.260014,8652.446522
23380.177811,-2086.541307,12442.677520,13227.523333
23380.180344,3732.803256,-9226.723946,6910.471669
23380.182877,114.855485,1014.556782,9284.151688
23380.185410,-2239.681954,10202.995566,12519.247843
23380.187943,1856.830338,-7427.321350,7121.040058
23380.190476,95.712904,325.423874,9207.581365
23380.193009,76.570323,9054.440718,11772.687192
23380.195542,1627.119368,-5034.498750,7829.315547
23380.198075,861.416136,995.414202,7791.030386
23380.200612,-401.994197,7274.180704,11160.124606
23380.203148,-0.000000,-1263.410333,9150.153622
23380.205684,1588.834206,0.000000,8843.872330
23380.208221,382.851616,995.414202,9820.143950
23380.210757,-2048.256146,1837.687757,10394.421374
23380.213293,899.701298,57.427742,9533.005238
23380.215830,-1837.687757,-7657.032320,7561.319416
23380.218366,-1952.543242,10872.985894,12921.242040
23380.220902,842.273555,-6776.473603,7714.460062
23380.223439,1646.261949,-7331.608446,7542.176835
23380.225975,-3120.240670,13840.085918,13514.662045
23380.228511,1416.550979,-8001.598774,7274.180704
23380.231047,1722.832272,-12519.247843,5761.916821
23380.233584,-3024.527766,9590.432981,12232.109131
23380.236120,57.427742,957.129040,10222.138147
23380.238656,1282.552914,-9820.143950,6527.620053
23380.241193,-2105.683888,7829.315547,11868.400096
23380.243729,153.140646,-1225.125171,9743.573627
23380.246265,708.275490,-6719.045861,7561.319416
23380.248802,-2220.539373,7255.038123,11581.261384
23380.251338,555.134843,-3005.385186,8805.587168
23380.253874,-535.992262,-3579.662610,8480.163294
23380.256410,-248.853550,5493.920690,11083.554283
23380.258947,-1416.550979,-4230.510357,8556.733618
23380.261483,421.136778,3924.229064,10164.710405
23380.264019,1952.543242,-727.418070,8997.012976
23380.266556,229.710970,-1052.841944,8863.014910
23380.269092,-1014.556782,10164.710405,12002.398162
23380.271628,1435.693560,-6814.758765,7063.612315
23380.274165,516.849682,478.564520,9360.722011
23380.276701,-1646.261949,9284.151688,12212.966550
23380.279237,3426.521963,-8518.448456,7082.754896
23380.281773,-478.564520,3177.668413,9915.856854
23380.284310,-1531.406464,7503.891674,11600.403965
23380.286846,1588.834206,-6833.901346,7235.895542
23380.289382,-95.712904,2603.390989,9896.714274
23380.291919,325.423874,6374.479406,11026.126541
23380.294455,1052.841944,-650.847747,9150.153622
23380.296991,478.564520,-2239.681954,8595.018779
23380.299528,-535.992262,6661.618118,11045.269122
23380.302067,746.560651,-2660.818731,8614.161360
23380.304606,555.134843,1837.687757,9571.290400
23380.307145,765.703232,1512.263883,9973.284597
23380.309684,-2067.398726,-1856.830338,9284.151688
23380.312223,133.998066,5245.067139,10930.413637
23380.314762,-650.847747,-10528.419440,6661.618118
23380.317301,-1493.121302,7542.176835,11964.113000
23380.319840,-210.568389,708.275490,9973.284597
23380.322379,2603.390989,-12327.822035,6068.198114
23380.324918,-784.845813,1493.121302,9820.143950
23380.327457,-2794.816797,10375.278794,12538.390424
23380.329996,1741.974853,-12327.822035,6125.625856
23380.332535,-2067.398726,4383.651003,10758.130410
23380.335074,-1033.699363,6297.909083,11676.974288
23380.337613,1320.838075,-10719.845248,6451.049730
23380.340152,-2411.965181,4843.072942,11026.126541
23380.342691,-133.998066,3120.240670,10892.128475
23380.345230,1799.402595,-9571.290400,6891.329088
23380.347769,-2469.392923,6719.045861,11466.405899
23380.350309,172.283227,1225.125171,9954.142016
23380.352848,-248.853550,-9284.151688,6948.756830
23380.355387,-1033.699363,9896.714274,12232.109131
23380.357926,1301.695494,3311.666478,10432.706536
23380.360465,612.562586,-5187.639397,7752.745224
23380.363004,1435.693560,9131.011042,11638.689126
23380.365543,765.703232,-5876.772306,7523.034254
23380.368082,-555.134843,3751.945837,10222.138147
23380.370621,-1799.402595,6929.614250,11160.124606
23380.373160,2354.537438,-8135.596840,7121.040058
23380.375699,-861.416136,5608.776174,10872.985894
23380.378238,727.418070,3330.809059,10509.276859
23380.380777,2201.396792,-6757.331022,7159.325219
23380.383316,-1378.265818,6470.192310,11045.269122
23380.385855,133.998066,2029.113565,10088.140082
23380.388394,1607.976787,-3120.240670,8384.450390
23380.390933,-497.707101,1416.550979,9379.864592
23380.393472,-555.134843,5111.069074,10681.560086
23380.396011,1359.123237,-3081.955509,8422.735552
23380.398550,-823.130974,2526.820666,9992.427178
23380.401089,1052.841944,4326.223261,10413.563955
23380.403631,-248.853550,-5111.069074,8059.026517
23380.406173,191.425808,7599.604578,11370.692995
23380.408714,516.849682,-7293.323285,7791.030386
23380.411256,-2545.963246,1665.404530,10088.140082
23380.413798,-1473.978722,5608.776174,11389.835576
23380.416339,1531.406464,-13208.380752,5972.485210
23380.418881,-2029.113565,9016.155557,12461.820101
23380.421423,-3005.385186,12748.958813,13342.378818
23380.423964,1531.406464,-10356.136213,6585.047795
23380.426506,-1914.258080,842.273555,9475.577496
23380.429048,-2431.107762,9284.151688,12442.677520
23380.431589,2239.681954,-11274.980091,6297.909083
23380.434131,-1550.549045,2737.389054,10202.995566
23380.436672,-1244.267752,6049.055533,11466.405899
23380.439214,746.560651,-10738.987829,6833.901346
23380.441756,-2163.111630,4804.787781,10968.698798
23380.444297,-1205.982590,3541.377448,10758.130410
23380.446839,1646.261949,-9399.007173,6872.186507
23380.449381,-2009.970984,6412.764568,11389.835576
23380.451922,-459.421939,8786.444587,12021.540742
23380.454464,191.425808,-9801.001370,7082.754896
23380.457006,-899.701298,8441.878133,11370.692995
23380.459547,1531.406464,1129.412267,9724.431046
23380.462089,1033.699363,-6029.912952,7312.465866
23380.464631,-1588.834206,13399.806560,12882.956878
23380.467172,1780.260014,-5972.485210,7408.178770
23380.469714,899.701298,-3005.385186,8212.167163
23380.472255,-2124.826469,11638.689126,12729.816232
23380.474797,3101.098090,-7848.458128,7350.751027
23380.477339,57.427742,861.416136,9265.009107
23380.479880,-1359.123237,8403.592971,11887.542677
23380.482422,1454.836141,-5513.063270,7695.317482
23380.484964,1225.125171,-3885.943902,8020.741355
23380.487505,-861.416136,6967.899411,11140.982026
23380.490047,784.845813,306.281293,9379.864592
23380.492589,937.986459,-2373.680019,8518.448456
23380.495130,-1014.556782,5876.772306,10892.128475
23380.497672,1473.978722,-248.853550,9131.011042
23380.500214,-1091.127106,-1799.402595,8843.872330
23380.502755,803.988394,7274.180704,11332.407834
23380.505299,133.998066,-10011.569758,7121.040058
23380.507843,-2699.103893,7197.610381,11657.831707
23380.510386,-574.277424,-631.705166,9552.147819
23380.512930,1129.412267,-11236.694930,6297.909083
23380.515474,-1014.556782,3464.807125,10758.130410
23380.518018,-1875.972918,9131.011042,12423.534939
23380.520561,2163.111630,-13227.523333,5532.205851
23380.523105,-3273.381317,6795.616184,11255.837510
23380.525649,-1378.265818,4632.504554,11236.694930
23380.528192,1875.972918,-11562.118803,6240.481341
23380.530736,-2086.541307,7274.180704,11600.403965
23380.533280,-823.130974,1435.693560,10164.710405
23380.535824,363.709035,-9647.860723,7044.469734
23380.538367,-2316.252277,7580.461997,11791.829773
23380.540911,-248.853550,-708.275490,9590.432981
23380.543455,765.703232,-7561.319416,7274.180704
23380.545998,-2507.678085,8384.450390,11964.113000
23380.548542,-153.140646,6833.901346,11638.689126
23380.551086,823.130974,-11351.550414,6393.621987
23380.553630,-1818.545176,11274.980091,12289.536874
23380.556173,1933.400661,727.418070,9590.432981
23380.558717,1244.267752,-8882.157491,6393.621987
23380.561261,-1971.685822,16520.047230,13725.230434
23380.563804,1952.543242,-6240.481341,7465.606512
23380.566348,1397.408398,-5608.776174,7408.178770
23380.568892,-2584.248408,14605.789150,13782.658176
23380.571436,3101.098090,-8020.741355,7312.465866
23380.573979,191.425808,-1320.838075,8595.018779
23380.576523,-1435.693560,10700.702667,12538.390424
23380.579067,440.279358,1895.115499,10126.425243
23380.581610,1684.547110,-5149.354235,7676.174901
23380.584154,-861.416136,7006.184573,11045.269122
23380.586698,516.849682,1225.125171,9590.432981
23380.589242,1148.554848,-2660.818731,8346.165229
23380.591785,-957.129040,4977.071008,10624.132344
23380.594329,1646.261949,1761.117434,9609.575562
23380.596873,-191.425808,-4383.651003,8135.596840
23380.599416,-1167.697429,8441.878133,11830.114934
23380.601960,1091.127106,-7733.602643,7637.889739
23380.604504,-2641.676150,-669.990328,9494.720077
23380.607050,-1588.834206,9533.005238,12576.675586
23380.609596,1569.691626,-14471.791085,5398.207786
23380.612141,1741.974853,-8824.729749,6948.756830
23380.614687,-3407.379382,14644.074312,13859.228499
23380.617233,1225.125171,-7197.610381,7542.176835
23380.619779,-957.129040,-4173.082614,8078.169098
23380.622325,-2813.959378,11830.114934,13189.238171
23380.624871,1320.838075,-8709.874264,7255.038123
23380.627417,-727.418070,-1875.972918,8805.587168
23380.629962,-1761.117434,7408.178770,11868.400096
23380.632508,1110.269686,-7676.174901,7637.889739
23380.635054,-1071.984525,57.427742,9628.718142
23380.637600,-2086.541307,5264.209720,11274.980091
23380.640146,1205.982590,-5589.633594,7963.313613
23380.642692,-555.134843,-6565.905214,7925.028451
23380.645237,-2143.969050,8078.169098,11849.257515
23380.647783,3388.236802,-2545.963246,8614.161360
23380.650329,267.996131,-5034.498750,7695.317482
23380.652875,-421.136778,15448.062706,13514.662045
23380.655421,2105.683888,-10260.423309,6221.338760
23380.657967,-593.420005,1531.406464,9437.292334
23380.660512,-2833.101958,13897.513661,13476.376883
23380.663058,3369.094221,-11849.257515,6029.912952
23380.665604,-574.277424,2143.969050,9743.573627
23380.668150,-440.279358,9284.151688,12212.966550
23380.670696,2316.252277,-9399.007173,6527.620053
23380.673242,-937.986459,4364.508422,10279.565890
23380.675788,-516.849682,7829.315547,11600.403965
23380.678333,669.990328,-1378.265818,8863.014910
23380.680879,38.285162,-363.709035,8843.872330
23380.683425,-114.855485,4728.217458,10451.849117
23380.685971,516.849682,-210.568389,9226.723946
23380.688517,593.420005,803.988394,9399.007173
23380.691063,-1339.980656,2967.100024,10068.997501
23380.693608,1799.402595,57.427742,9379.864592
23380.696154,-1818.545176,-4460.221326,8595.018779
23380.698700,-1320.838075,8786.444587,12136.396227
23380.701246,574.277424,-10547.562021,6699.903280
23380.703792,-746.560651,-306.281293,9533.005238
23380.706338,-2622.533570,12117.253646,13284.951075
23380.708885,210.568389,-2507.678085,9073.583299
23380.711433,1512.263883,-8843.872330,6776.473603
23380.713980,-3656.232933,11983.255581,12921.242040
23380.716528,287.138712,-4479.363907,8499.305875
23380.719075,76.570323,-6068.198114,7561.319416
23380.721623,-1741.974853,8575.876198,12117.253646
23380.724171,-363.709035,-4307.080680,8575.876198
23380.726718,-267.996131,-3349.951640,8595.018779
23380.729266,-1473.978722,5398.207786,11294.122672
23380.731813,133.998066,-4173.082614,8556.733618
23380.734361,114.855485,-1512.263883,9073.583299
23380.736908,-2105.683888,1416.550979,10202.995566
23380.739456,76.570323,3445.664544,10528.419440
23380.742004,2029.113565,-7580.461997,7216.752962
23380.744551,-2143.969050,7791.030386,11313.265253
23380.747099,2105.683888,4421.936165,10547.562021
23380.749646,1531.406464,-11447.263318,5570.491013
23380.752194,-1646.261949,14720.644635,13227.523333
23380.754741,95.712904,-133.998066,9303.294269
23380.757289,2679.961312,-10356.136213,6125.625856
23380.759836,-2354.537438,13112.667848,13131.810429
23380.762384,2182.254211,-1875.972918,9131.011042
23380.764932,1186.840010,-7140.182638,6987.041992
23380.767479,-2124.826469,11964.113000,12614.960747
23380.770027,57.427742,7274.180704,11542.976222
23380.772574,1473.978722,-7752.745224,6948.756830
23380.775122,-574.277424,5934.200048,10643.274925
23380.777669,133.998066,4460.221326,10470.991698
23380.780217,1359.123237,-4804.787781,7829.315547
23380.782764,-114.855485,4479.363907,10490.134278
23380.785312,-1129.412267,3598.805190,10394.421374
23380.787860,2316.252277,-4134.797453,8116.454259
23380.790407,-2833.101958,-248.853550,9705.288466
23380.792955,-478.564520,8633.303941,12136.396227
23380.795502,823.130974,-14548.361408,5551.348432
23380.798050,-1416.550979,4977.071008,11083.554283
23380.800597,-3177.668413,15103.496251,14337.793019
23380.803145,1071.984525,-7599.604578,7714.460062
23380.805692,1033.699363,-6393.621987,7255.038123
23380.808240,-3828.516160,13782.658176,13495.519464
23380.810789,1167.697429,-8154.739421,7312.465866
23380.813338,-689.132909,-3828.516160,8231.309744
23380.815886,-1569.691626,9552.147819,12576.675586
23380.818435,-0.000000,-6872.186507,7867.600709
23380.820984,-401.994197,-1512.263883,9092.725880
23380.823533,-1301.695494,5532.205851,11485.548480
23380.826082,287.138712,-6183.053598,8020.741355
23380.828630,-401.994197,727.418070,9590.432981
23380.831179,-1818.545176,2718.246474,10547.562021
23380.833728,-267.996131,1646.261949,10068.997501
23380.836277,2488.535504,-5532.205851,7695.317482
23380.838826,-1684.547110,5436.492947,10719.845248
23380.841374,1952.543242,6125.625856,10987.841379
23380.843923,1320.838075,-11217.552349,5704.489078
23380.846472,-1588.834206,11944.970419,12595.818166
23380.849021,-861.416136,3330.809059,10451.849117
23380.851570,2928.814862,-11083.554283,5934.200048
23380.854118,-1646.261949,10432.706536,12270.394293
23380.856667,1627.119368,1416.550979,9934.999435
23380.859216,1895.115499,-8346.165229,6680.760699
23380.861765,-1952.543242,9437.292334,12059.825904
23380.864314,-76.570323,8652.446522,11868.400096
23380.866862,1416.550979,-6221.338760,7580.461997
23380.869411,-248.853550,2718.246474,9743.573627
23380.871960,-401.994197,6853.043926,11121.839445
23380.874509,1014.556782,-4862.215523,7867.600709
23380.877058,689.132909,3043.670347,9954.142016
23380.879606,-1875.972918,4115.654872,10624.132344
23380.882155,2392.822600,-1091.127106,8939.585234
23380.884704,-727.418070,-6317.051664,8078.169098
23380.887253,-3005.385186,10068.997501,12768.101394
23380.889802,784.845813,-7121.040058,7695.317482
23380.892351,382.851616,-7446.463931,7140.182638
23380.894899,-2890.529701,14605.789150,14108.082050
23380.897448,-1646.261949,5857.629725,11542.976222
23380.899997,2469.392923,-13514.662045,5455.635528
23380.902546,-3522.234867,8786.444587,11849.257515
23380.905095,-727.418070,2679.961312,10719.845248
23380.907643,1129.412267,-10413.563955,6336.194245
23380.910192,-1646.261949,7293.323285,11638.689126
23380.912742,-325.423874,-287.138712,9667.003304
23380.915292,382.851616,-6929.614250,7695.317482
23380.917841,-2182.254211,6049.055533,11408.978157
23380.920391,-497.707101,-2718.246474,9131.011042
23380.922941,-191.425808,-2335.394858,8767.302006
23380.925490,-1550.549045,2852.244539,10585.847182
23380.928040,-2201.396792,1627.119368,10202.995566
23380.930590,2507.678085,2277.967115,9647.860723
23380.933140,574.277424,-6317.051664,7503.891674
23380.935689,-976.271621,11581.261384,12461.820101
23380.938239,229.710970,363.709035,9245.866526
23380.940789,1454.836141,-8078.169098,6623.332957
23380.943339,-2239.681954,13074.382686,13131.810429
23380.945888,401.994197,-1569.691626,9111.868461
23380.948438,1990.828403,-8039.883936,6891.329088
23380.950988,-2124.826469,10566.704602,12289.536874
23380.953537,1837.687757,-1282.552914,9169.296203
23380.956087,765.703232,-5321.637462,7484.749093
23380.958637,-1148.554848,8977.870395,10088.140082
23380.961187,-535.992262,6508.477472,11064.411702
23380.963736,1684.547110,-5455.635528,7580.461997
23380.966286,-248.853550,4211.367776,10222.138147
23380.968836,-555.134843,4307.080680,10758.130410
23380.971386,1263.410333,-2928.814862,8135.596840
23380.973935,535.992262,-19.142581,9207.581365
23380.976485,-3388.236802,4632.504554,11274.980091
23380.979035,1722.832272,-1320.838075,9341.579430
23380.981584,-1301.695494,-10068.997501,6967.899411
23380.984134,-2507.678085,12385.249778,13418.949141
23380.986684,440.279358,-5340.780043,8135.596840
23380.989234,2009.970984,-9590.432981,6585.047795
23380.991783,-1569.691626,5895.914886,11160.124606
23380.994333,-2029.113565,8154.739421,12059.825904
23380.996883,1837.687757,-12595.818166,5934.200048
23380.999432,-2431.107762,6642.475538,11217.552349
23381.001982,-478.564520,3579.662610,10968.698798
23381.004532,344.566454,-9399.007173,6967.899411
23381.007082,-1397.408398,6393.621987,11485.548480
23381.009631,-267.996131,-95.712904,9877.571693
23381.012181,-191.425808,-7408.178770,7676.174901
23381.014732,-1665.404530,7503.891674,11600.403965
23381.017282,-918.843878,-4077.369710,8843.872330
23381.019833,191.425808,-478.564520,9265.009107
23381.022384,593.420005,1665.404530,9954.142016
23381.024934,-784.845813,-1435.693560,8920.442653
23381.027485,1359.123237,7810.172966,11198.409768
23381.030036,650.847747,-5264.209720,7542.176835
23381.032586,-0.000000,2488.535504,9954.142016
23381.035137,-2143.969050,8824.729749,11868.400096
23381.037688,2526.820666,-7618.747158,7121.040058
23381.040238,-19.142581,1512.263883,9609.575562
23381.042789,-669.990328,6795.616184,11351.550414
23381.045340,1990.828403,-6202.196179,7503.891674
23381.047890,-976.271621,2679.961312,9858.429112
23381.050441,-57.427742,5417.350366,10968.698798
23381.052992,1454.836141,-4326.223261,7925.028451
23381.055543,746.560651,-1684.547110,8461.020714
23381.058093,-95.712904,6661.618118,10930.413637
23381.060644,593.420005,-1473.978722,9035.298138
23381.063195,1129.412267,1186.840010,9188.438784
23381.065745,-248.853550,421.136778,9647.860723
23381.068296,-2258.824534,2565.105827,10451.849117
23381.070847,1588.834206,-1607.976787,9303.294269
23381.073397,-1895.115499,-7159.325219,7848.458128
23381.075948,-2009.970984,11370.692995,13208.380752
23381.078499,478.564520,-8499.305875,7121.040058
23381.081049,1129.412267,-5149.354235,7982.456194
23381.083600,-3407.379382,13284.951075,13629.517530
23381.086151,-957.129040,-8403.592971,10911.271056
23381.088701,1780.260014,-11274.980091,6106.483275
23381.091252,-3024.527766,8288.737486,11906.685258
23381.093803,-421.136778,1761.117434,10394.421374
23381.096353,842.273555,-9226.723946,6929.614250
23381.098904,-1416.550979,6336.194245,11447.263318
23381.101455,-325.423874,382.851616,10088.140082
23381.104005,-382.851616,-7465.606512,7657.032320
23381.106556,-1512.263883,6757.331022,11351.550414
23381.109107,-1473.978722,-2699.103893,9207.581365
23381.111657,593.420005,-1282.552914,8920.442653
23381.114208,1263.410333,765.703232,9647.860723
23381.116759,-918.843878,2947.957443,10107.282662
23381.119311,995.414202,9322.436850,11676.974288
23381.121862,1052.841944,-6470.192310,7178.467800
23381.124413,-287.138712,1914.258080,9743.573627
23381.126965,-2526.820666,10853.843314,12538.390424
23381.129516,2986.242605,-8748.159426,6814.758765
23381.132067,-57.427742,727.418070,9322.436850
23381.134619,-976.271621,8307.880067,11925.827838
23381.137170,2239.681954,-6967.899411,7293.323285
23381.139721,-918.843878,1971.685822,9590.432981
23381.142273,-210.568389,6623.332957,11198.409768
23381.144824,1493.121302,-4632.504554,7925.028451
23381.147375,344.566454,2545.963246,9686.145885
23381.149927,-727.418070,5991.627790,10968.698798
23381.152478,803.988394,-133.998066,9379.864592
23381.155029,76.570323,-287.138712,8997.012976
23381.157581,765.703232,2029.113565,9896.714274
