#time,accel_x,accel_y,accel_z
12711.115098,-267.996131,172.283227,-9915.856854
12711.117648,-478.564520,114.855485,-9915.856854
12711.120197,-191.425808,76.570323,-9915.856854
12711.122746,-248.853550,-57.427742,-9877.571693
12711.125295,-38.285162,-535.992262,-9705.288466
12711.127844,-95.712904,114.855485,-9992.427178
12711.130393,-440.279358,440.279358,-10126.425243
12711.132942,-229.710970,-1014.556782,-9609.575562
12711.135491,38.285162,306.281293,-10202.995566
12711.138040,555.134843,-401.994197,-10011.569758
12711.140589,-306.281293,-2584.248408,-9360.722011
12711.143138,-267.996131,957.129040,-10470.991698
12711.145687,-210.568389,-267.996131,-9801.001370
12711.148236,-1033.699363,-1933.400661,-9092.725880
12711.150785,287.138712,3330.809059,-10834.700733
12711.153334,1607.976787,-842.273555,-9934.999435
12711.155884,-306.281293,344.566454,-9571.290400
12711.158433,-937.986459,574.277424,-9992.427178
12711.160982,-1741.974853,784.845813,-10011.569758
12711.163531,-210.568389,727.418070,-10107.282662
12711.166080,650.847747,-1512.263883,-9513.862658
12711.168629,19.142581,2909.672282,-10662.417506
12711.171178,-1512.263883,-459.421939,-9494.720077
12711.173727,-1282.552914,-1091.127106,-9399.007173
12711.176276,-803.988394,3273.381317,-11006.983960
12711.178825,-210.568389,-1339.980656,-9207.581365
12711.181374,-459.421939,516.849682,-9743.573627
12711.183923,-574.277424,1665.404530,-10547.562021
12711.186472,-803.988394,-1014.556782,-9628.718142
12711.189021,-593.420005,459.421939,-9954.142016
12711.191570,-746.560651,-899.701298,-9418.149754
12711.194119,-555.134843,401.994197,-10049.854920
12711.196669,-0.000000,1569.691626,-10317.851051
12711.199218,-1148.554848,-861.416136,-9456.434915
12711.201767,-669.990328,153.140646,-9915.856854
12711.204316,-1244.267752,1665.404530,-10356.136213
12711.206865,-440.279358,-306.281293,-9437.292334
12711.209414,-210.568389,650.847747,-9839.286531
12711.211963,-267.996131,1014.556782,-10126.425243
12711.214512,-1856.830338,19.142581,-9743.573627
12711.217062,-153.140646,-153.140646,-9934.999435
12711.219613,-421.136778,1186.840010,-10298.708470
12711.222163,210.568389,1435.693560,-10164.710405
12711.224713,-1091.127106,-1990.828403,-9054.440718
12711.227264,-1282.552914,2641.676150,-10470.991698
12711.229814,-1091.127106,-1033.699363,-9513.862658
12711.232364,95.712904,631.705166,-9571.290400
12711.234915,-1761.117434,593.420005,-9973.284597
12711.237465,1493.121302,-382.851616,-9858.429112
12711.240015,-2335.394858,4019.941968,-10700.702667
12711.242565,-478.564520,-10049.854920,-6853.043926
12711.245116,1607.976787,13533.804626,-14471.791085
12711.247666,-1148.554848,-8250.452325,-7484.749093
12711.250216,267.996131,-6546.762634,-7637.889739
12711.252767,-1148.554848,19123.438219,-15811.771741
12711.255317,210.568389,-7886.743290,-8116.454259
12711.257867,-823.130974,-7044.469734,-6948.756830
12711.260418,669.990328,14816.357539,-15180.066574
12711.262968,-382.851616,-11964.113000,-6355.336826
12711.265518,-918.843878,3349.951640,-10241.280728
12711.268069,842.273555,3196.810994,-11772.687192
12711.270619,-153.140646,-4479.363907,-8461.020714
12711.273169,593.420005,1282.552914,-10202.995566
12711.275719,-1148.554848,-191.425808,-10222.138147
12711.278270,-612.562586,1052.841944,-10068.997501
12711.280820,-57.427742,-2928.814862,-8977.870395
12711.283370,421.136778,-1531.406464,-9475.577496
12711.285921,-574.277424,3483.949706,-11045.269122
12711.288471,344.566454,-2603.390989,-9169.296203
12711.291021,-76.570323,497.707101,-9954.142016
12711.293572,-421.136778,1339.980656,-10509.276859
12711.296122,-516.849682,-1282.552914,-9456.434915
12711.298672,172.283227,114.855485,-10011.569758
12711.301223,497.707101,-76.570323,-10107.282662
12711.303773,-229.710970,-880.558717,-9686.145885
12711.306323,-1167.697429,-497.707101,-9858.429112
12711.308874,-593.420005,-210.568389,-10011.569758
12711.311424,114.855485,267.996131,-10068.997501
12711.313974,210.568389,-1148.554848,-9724.431046
12711.316524,-267.996131,1033.699363,-10183.852986
12711.319076,133.998066,114.855485,-10107.282662
12711.321627,-1627.119368,-1665.404530,-9245.866526
12711.324178,172.283227,957.129040,-10202.995566
12711.326729,-421.136778,-114.855485,-9877.571693
12711.329280,1320.838075,-1588.834206,-9437.292334
12711.331831,-1856.830338,1703.689691,-10413.563955
12711.334382,1225.125171,-3598.805190,-9073.583299
12711.336934,-1263.410333,5168.496816,-11351.550414
12711.339485,-1990.828403,-7714.460062,-7197.610381
12711.342036,1148.554848,7618.747158,-12193.823970
12711.344587,-1914.258080,1378.265818,-14548.361408
12711.347138,-2239.681954,-18013.168533,-3771.088418
12711.349689,-1588.834206,12538.390424,-13399.806560
12711.352240,229.710970,2660.818731,-11332.407834
12711.354792,-344.566454,-13055.240106,-4919.643266
12711.357343,1014.556782,15773.486579,-15084.353670
12711.359894,-2220.539373,-8231.309744,-7714.460062
12711.362445,-401.994197,-689.132909,-8824.729749
12711.364996,153.140646,6776.473603,-12519.247843
12711.367547,-1435.693560,-5742.774240,-7867.600709
12711.370098,-1282.552914,2967.100024,-10049.854920
12711.372650,-459.421939,1473.978722,-10604.989763
12711.375201,-995.414202,-803.988394,-9399.007173
12711.377752,-669.990328,-1052.841944,-9188.438784
12711.380303,-153.140646,421.136778,-10049.854920
12711.382854,-1091.127106,2277.967115,-10624.132344
12711.385405,-957.129040,-2890.529701,-8652.446522
12711.387956,-1091.127106,1493.121302,-10260.423309
12711.390508,-114.855485,1971.685822,-10681.560086
12711.393059,-440.279358,-1416.550979,-9226.723946
12711.395610,-421.136778,-76.570323,-9724.431046
12711.398161,-1091.127106,2488.535504,-10566.704602
12711.400712,-1167.697429,-382.851616,-9533.005238
12711.403263,-229.710970,-1167.697429,-9341.579430
12711.405814,-19.142581,3388.236802,-11006.983960
12711.408366,-1244.267752,2163.111630,-10413.563955
12711.410917,-842.273555,-2411.965181,-8901.300072
12711.413468,-287.138712,2239.681954,-10681.560086
12711.416019,-1416.550979,0.000000,-9839.286531
12711.418570,38.285162,-1320.838075,-9303.294269
12711.421105,-1225.125171,3369.094221,-10758.130410
12711.423640,555.134843,-2029.113565,-9284.151688
12711.426175,-1741.974853,2431.107762,-10451.849117
12711.428710,631.705166,-1301.695494,-9590.432981
12711.431245,-1799.402595,3043.670347,-10317.851051
12711.433780,-306.281293,-4766.502619,-8346.165229
12711.436315,1091.127106,6795.616184,-12327.822035
12711.438850,-1875.972918,-3311.666478,-8805.587168
12711.441385,-95.712904,-16481.762069,-4651.647134
12711.443920,880.558717,15122.638832,-14931.213024
12711.446455,-57.427742,-4364.508422,-9073.583299
12711.448990,-191.425808,-9992.427178,-6202.196179
12711.451524,708.275490,16615.760134,-15869.199483
12711.454059,-1244.267752,-13036.097525,-5781.059402
12711.456594,1186.840010,3120.240670,-10375.278794
12711.459129,172.283227,5857.629725,-12595.818166
12711.461664,-937.986459,-8250.452325,-7006.184573
12711.464199,19.142581,4919.643266,-11255.837510
12711.466734,1071.984525,-287.138712,-10490.134278
12711.469269,57.427742,-2201.396792,-8977.870395
12711.471804,306.281293,-650.847747,-9552.147819
12711.474339,-267.996131,842.273555,-10432.706536
12711.476874,-631.705166,765.703232,-10107.282662
12711.479409,287.138712,-2105.683888,-9150.153622
12711.481944,-229.710970,1244.267752,-10432.706536
12711.484479,-153.140646,133.998066,-10126.425243
12711.487014,-612.562586,-535.992262,-9590.432981
12711.489549,-76.570323,-229.710970,-9801.001370
12711.492084,-133.998066,478.564520,-10222.138147
12711.494619,-38.285162,-937.986459,-9667.003304
12711.497153,-363.709035,-746.560651,-9724.431046
12711.499688,-76.570323,1550.549045,-10509.276859
12711.502223,440.279358,-784.845813,-9839.286531
12711.504758,-363.709035,-2182.254211,-9303.294269
12711.507293,-57.427742,2775.674216,-10834.700733
12711.509828,440.279358,-995.414202,-9590.432981
12711.512363,-1378.265818,-1378.265818,-9169.296203
12711.514898,248.853550,1780.260014,-10547.562021
12711.517433,-325.423874,-1071.984525,-9724.431046
12711.519968,861.416136,-497.707101,-9705.288466
12711.522506,-1205.982590,421.136778,-10107.282662
12711.525044,1301.695494,-1569.691626,-9552.147819
12711.527582,-1454.836141,2526.820666,-10624.132344
12711.530120,-440.279358,-7178.467800,-7829.315547
12711.532658,708.275490,11734.402030,-13495.519464
12711.535195,-1339.980656,7944.171032,-12289.536874
12711.537733,-1301.695494,-17036.896912,-3885.943902
12711.540271,-1244.267752,20003.996936,-16213.765938
12711.542809,287.138712,-8173.882002,-7810.172966
12711.545347,-689.132909,-5532.205851,-7216.752962
12711.547885,287.138712,14682.359474,-15007.783347
12711.550423,-2220.539373,-13418.949141,-5685.346498
12711.552961,19.142581,5647.061336,-10796.415571
12711.555499,-153.140646,3503.092286,-11600.403965
12711.558037,-1339.980656,-6489.334891,-7350.751027
12711.560575,-784.845813,6068.198114,-11447.263318
12711.563113,-957.129040,-823.130974,-9877.571693
12711.565651,-899.701298,-1703.689691,-9265.009107
12711.568189,-631.705166,1244.267752,-9915.856854
12711.570726,-57.427742,-459.421939,-9820.143950
12711.573264,-708.275490,1397.408398,-10317.851051
12711.575802,-593.420005,-1684.547110,-9207.581365
12711.578340,-1378.265818,1359.123237,-10317.851051
12711.580878,-612.562586,1244.267752,-10490.134278
12711.583416,-516.849682,-2354.537438,-8882.157491
12711.585954,-440.279358,2699.103893,-10585.847182
12711.588492,-497.707101,689.132909,-10126.425243
12711.591030,-1091.127106,-2220.539373,-9111.868461
12711.593568,-842.273555,3062.812928,-10796.415571
12711.596106,-669.990328,210.568389,-10604.989763
12711.598644,210.568389,-2411.965181,-8958.727814
12711.601182,-382.851616,1895.115499,-10509.276859
12711.603722,-669.990328,1167.697429,-10222.138147
12711.606262,-1397.408398,-3005.385186,-8843.872330
12711.608803,-1914.258080,3215.953574,-10624.132344
12711.611343,153.140646,-1014.556782,-9628.718142
12711.613883,-976.271621,1416.550979,-9915.856854
12711.616423,191.425808,-1244.267752,-9533.005238
12711.618964,-497.707101,4173.082614,-11083.554283
12711.621504,-2258.824534,-4441.078746,-8231.309744
12711.624044,957.129040,1091.127106,-10547.562021
12711.626585,-746.560651,7408.178770,-12136.396227
12711.629125,-459.421939,-12844.671717,-5991.627790
12711.631665,133.998066,344.566454,-9954.142016
12711.634206,-1378.265818,12251.251712,-14261.222696
12711.636746,229.710970,-18625.731118,-3694.518094
12711.639286,363.709035,13074.382686,-13935.798822
12711.641827,-861.416136,-1627.119368,-9896.714274
12711.644367,612.562586,-7925.028451,-6699.903280
12711.646907,-57.427742,10011.569758,-13457.234302
12711.649447,-765.703232,-6087.340694,-8250.452325
12711.651988,-746.560651,-267.996131,-9341.579430
12711.654528,1703.689691,2986.242605,-11332.407834
12711.657068,325.423874,-3101.098090,-8920.442653
12711.659609,-191.425808,-1378.265818,-9322.436850
12711.662149,-306.281293,593.420005,-10222.138147
12711.664689,-325.423874,995.414202,-10298.708470
12711.667230,-459.421939,-1761.117434,-9188.438784
12711.669770,-0.000000,612.562586,-10068.997501
12711.672310,-153.140646,1339.980656,-10298.708470
12711.674850,172.283227,-2124.826469,-9245.866526
12711.677391,267.996131,1416.550979,-10336.993632
12711.679931,-306.281293,-344.566454,-10126.425243
12711.682471,114.855485,-1684.547110,-9475.577496
12711.685012,95.712904,1225.125171,-10490.134278
12711.687552,803.988394,-2086.541307,-9533.005238
12711.690092,-689.132909,574.277424,-9934.999435
12711.692633,-287.138712,57.427742,-10030.712339
12711.695173,-267.996131,-1818.545176,-9456.434915
12711.697713,248.853550,3637.090352,-10987.841379
12711.700253,1646.261949,-2201.396792,-9437.292334
12711.702794,-842.273555,133.998066,-9781.858789
12711.705320,-57.427742,-516.849682,-10126.425243
12711.707845,-746.560651,1225.125171,-10317.851051
12711.710371,-650.847747,-3905.086483,-8824.729749
12711.712897,1856.830338,3215.953574,-11160.124606
12711.715422,-1990.828403,2220.539373,-10279.565890
12711.717948,-191.425808,-9705.288466,-6776.473603
12711.720474,-669.990328,17438.891109,-15371.492382
12711.722999,-995.414202,5111.069074,-11696.116869
12711.725525,593.420005,-15237.494317,-4460.221326
12711.728051,-1205.982590,17496.318851,-15467.205286
12711.730577,-1110.269686,-8958.727814,-7503.891674
12711.733102,-689.132909,-2488.535504,-8269.594906
12711.735628,-1148.554848,10298.708470,-13495.519464
12711.738154,-1225.125171,-8537.591037,-7101.897477
12711.740679,708.275490,4804.787781,-10872.985894
12711.743205,-440.279358,1339.980656,-10624.132344
12711.745731,-2009.970984,-2469.392923,-8729.016845
12711.748257,-1339.980656,3637.090352,-10892.128475
12711.750782,-1033.699363,-2009.970984,-9437.292334
12711.753308,-478.564520,-497.707101,-9533.005238
12711.755834,-631.705166,976.271621,-10088.140082
12711.758359,-0.000000,-784.845813,-9705.288466
12711.760885,-995.414202,1339.980656,-10336.993632
12711.763411,-1071.984525,-976.271621,-9456.434915
12711.765937,-937.986459,727.418070,-10030.712339
12711.768462,-440.279358,1512.263883,-10356.136213
12711.770988,-478.564520,-1473.978722,-9188.438784
12711.773514,-1282.552914,2220.539373,-10317.851051
12711.776039,-1397.408398,765.703232,-10030.712339
12711.778565,-401.994197,-823.130974,-9494.720077
12711.781091,114.855485,1818.545176,-10509.276859
12711.783617,-1167.697429,-440.279358,-9456.434915
12711.786142,-842.273555,-2335.394858,-8977.870395
12711.788668,-1952.543242,2852.244539,-10604.989763
12711.791194,382.851616,-363.709035,-9877.571693
12711.793719,-1186.840010,459.421939,-9801.001370
12711.796245,880.558717,-248.853550,-9858.429112
12711.798771,-2277.967115,3369.094221,-10432.706536
12711.801296,-899.701298,-6125.625856,-7810.172966
12711.803822,1473.978722,8039.883936,-12653.245909
12711.806352,-2105.683888,-3675.375514,-8652.446522
12711.808882,957.129040,-7599.604578,-7542.176835
12711.811412,842.273555,17209.180139,-15811.771741
12711.813942,363.709035,-19066.010477,-4039.084549
12711.816472,-440.279358,-9705.288466,-6163.911018
12711.819002,248.853550,16405.191746,-15696.916256
12711.821532,-1052.841944,-12595.818166,-6029.912952
12711.824062,1703.689691,3311.666478,-10375.278794
12711.826592,535.992262,5111.069074,-12442.677520
12711.829122,-478.564520,-8039.883936,-7082.754896
12711.831651,-555.134843,5742.774240,-11562.118803
12711.834181,497.707101,-1933.400661,-9992.427178
12711.836711,287.138712,-2009.970984,-9016.155557
12711.839241,478.564520,1952.543242,-10624.132344
12711.841771,-497.707101,-1684.547110,-9667.003304
12711.844301,-478.564520,937.986459,-10068.997501
12711.846831,-459.421939,-229.710970,-9839.286531
12711.849361,-191.425808,-516.849682,-9743.573627
12711.851891,612.562586,1339.980656,-10394.421374
12711.854421,-76.570323,-842.273555,-9494.720077
12711.856951,-574.277424,-1129.412267,-9533.005238
12711.859481,-229.710970,1129.412267,-10470.991698
12711.862011,363.709035,-1071.984525,-9858.429112
12711.864541,210.568389,-1665.404530,-9494.720077
12711.867070,-708.275490,1320.838075,-10394.421374
12711.869600,-746.560651,-957.129040,-9513.862658
12711.872130,535.992262,-669.990328,-9934.999435
12711.874660,-172.283227,2392.822600,-10719.845248
12711.877190,555.134843,-2488.535504,-9801.001370
12711.879720,-1014.556782,-784.845813,-9360.722011
12711.882250,114.855485,-344.566454,-10164.710405
12711.884780,-842.273555,1914.258080,-10604.989763
12711.887310,-248.853550,-5245.067139,-8480.163294
12711.889840,1301.695494,5225.924558,-11657.831707
12711.892370,-2086.541307,-631.705166,-9379.864592
12711.894900,-19.142581,-7312.465866,-7676.174901
12711.897430,-267.996131,17113.467235,-15160.923994
12711.899960,-2526.820666,-14873.785282,-4632.504554
12711.902489,-650.847747,6144.768437,-11121.839445
12711.905019,440.279358,8633.303941,-13304.093656
12711.907553,-440.279358,-15237.494317,-4517.649069
12711.910086,-133.998066,899.701298,-9590.432981
12711.912620,-1895.115499,7676.174901,-12691.531070
12711.915153,-1454.836141,-8039.883936,-6891.329088
12711.917686,172.283227,6240.481341,-11428.120738
12711.920220,172.283227,-1033.699363,-10011.569758
12711.922753,-1741.974853,-478.564520,-9226.723946
12711.925287,-1397.408398,2469.392923,-10509.276859
12711.927820,-1569.691626,-2009.970984,-9245.866526
12711.930354,-325.423874,2277.967115,-10470.991698
12711.932887,-133.998066,-612.562586,-9686.145885
12711.935420,-497.707101,-842.273555,-9533.005238
12711.937954,-765.703232,1263.410333,-10222.138147
12711.940487,-1435.693560,1378.265818,-10317.851051
12711.943021,-918.843878,-650.847747,-9628.718142
12711.945554,-191.425808,669.990328,-9934.999435
12711.948087,-1014.556782,1512.263883,-10183.852986
12711.950621,-1167.697429,-153.140646,-9475.577496
12711.953154,-38.285162,976.271621,-10164.710405
12711.955688,-344.566454,0.000000,-10011.569758
12711.958221,-1512.263883,306.281293,-9686.145885
12711.960754,-229.710970,-19.142581,-9762.716208
12711.963288,-1378.265818,1282.552914,-9992.427178
12711.965821,535.992262,784.845813,-10145.567824
12711.968355,-1014.556782,-344.566454,-9686.145885
12711.970888,306.281293,153.140646,-9169.296203
12711.973421,-1990.828403,5302.494882,-11026.126541
12711.975955,-1339.980656,-6125.625856,-7848.458128
12711.978488,1780.260014,5551.348432,-11772.687192
12711.981022,-1473.978722,784.845813,-10088.140082
12711.983555,669.990328,-11294.122672,-6336.194245
12711.986088,631.705166,17266.607882,-15735.201418
12711.988622,401.994197,-15505.490448,-5417.350366
12711.991155,-1416.550979,2794.816797,-10183.852986
12711.993689,861.416136,8824.729749,-13476.376883
12711.996222,-325.423874,-13533.804626,-5245.067139
12711.998755,1110.269686,10738.987829,-12997.812363
12712.001289,-248.853550,-3120.240670,-9686.145885
12712.003822,-440.279358,-7695.317482,-7427.321350
12712.006356,-957.129040,5187.639397,-11236.694930
12712.008892,976.271621,-1703.689691,-9858.429112
12712.011429,612.562586,-1263.410333,-9399.007173
12712.013966,516.849682,1186.840010,-10451.849117
12712.016503,-708.275490,-2124.826469,-9379.864592
12712.019039,-880.558717,1627.119368,-10260.423309
12712.021576,-669.990328,-1205.982590,-9552.147819
12712.024113,306.281293,842.273555,-10202.995566
12712.026649,401.994197,746.560651,-10241.280728
12712.029186,-95.712904,-1990.828403,-9226.723946
12712.031723,-516.849682,727.418070,-10202.995566
12712.034260,-19.142581,842.273555,-10547.562021
12712.036796,-382.851616,-2143.969050,-9341.579430
12712.039333,-593.420005,344.566454,-9915.856854
12712.041870,210.568389,1129.412267,-10356.136213
12712.044407,-229.710970,-2584.248408,-9092.725880
12712.046943,-0.000000,2469.392923,-10777.272990
12712.049480,1416.550979,-727.418070,-9992.427178
12712.052017,-1665.404530,-1741.974853,-9035.298138
12712.054553,535.992262,555.134843,-10356.136213
12712.057090,-1052.841944,1971.685822,-10509.276859
12712.059627,784.845813,-5819.344563,-8250.452325
12712.062164,555.134843,6604.190376,-12136.396227
12712.064700,-3215.953574,-4613.361973,-8269.594906
12712.067237,-1473.978722,-12155.538808,-5876.772306
12712.069774,-363.709035,16826.328523,-15103.496251
12712.072310,-1990.828403,-8269.594906,-7216.752962
12712.074847,-248.853550,-3215.953574,-8097.311678
12712.077384,248.853550,14873.785282,-15084.353670
12712.079921,-880.558717,-15371.492382,-4843.072942
12712.082457,-229.710970,7465.606512,-11791.829773
12712.084994,-2335.394858,2182.254211,-11179.267187
12712.087531,-1454.836141,-6278.766502,-7082.754896
12712.090068,133.998066,7714.460062,-11944.970419
12712.092604,133.998066,-3254.238736,-9188.438784
12712.095141,-1493.121302,784.845813,-9647.860723
12712.097678,-1607.976787,1301.695494,-10011.569758
12712.100214,-1263.410333,-95.712904,-9973.284597
12712.102751,-76.570323,1646.261949,-10164.710405
12712.105288,114.855485,-1244.267752,-9533.005238
12712.107825,-593.420005,669.990328,-10183.852986
12712.110347,-1225.125171,-38.285162,-9896.714274
12712.112870,-1531.406464,153.140646,-9801.001370
12712.115393,-1148.554848,1148.554848,-10088.140082
12712.117916,-880.558717,-95.712904,-9628.718142
12712.120439,-459.421939,1895.115499,-10202.995566
12712.122961,-114.855485,-421.136778,-9647.860723
12712.125484,-440.279358,-133.998066,-9839.286531
12712.128007,-1703.689691,1722.832272,-10432.706536
12712.130530,-880.558717,-1607.976787,-9322.436850
12712.133053,-1684.547110,880.558717,-9858.429112
12712.135576,880.558717,2297.109696,-10624.132344
12712.138098,-727.418070,-325.423874,-9552.147819
12712.140621,133.998066,-1225.125171,-9552.147819
12712.143144,-3081.955509,4287.938099,-10968.698798
12712.145667,-574.277424,-5895.914886,-8097.311678
12712.148190,1684.547110,7925.028451,-12385.249778
12712.150712,-1397.408398,-4670.789715,-8327.022648
12712.153235,1263.410333,-4134.797453,-8748.159426
12712.155758,172.283227,13820.943338,-14739.787216
12712.158281,210.568389,-19008.582734,-7676.174901
12712.160804,-1071.984525,-5283.352301,-7637.889739
12712.163327,861.416136,13591.232368,-14835.500120
12712.165849,-325.423874,-12825.529136,-5742.774240
12712.168372,1378.265818,6125.625856,-11313.265253
12712.170895,-210.568389,1473.978722,-11217.552349
12712.173418,-401.994197,-6259.623922,-7771.887805
12712.175941,-287.138712,5857.629725,-11734.402030
12712.178463,344.566454,-3330.809059,-9207.581365
12712.180986,-57.427742,57.427742,-9494.720077
12712.183509,497.707101,727.418070,-10432.706536
12712.186032,-133.998066,-1378.265818,-9743.573627
12712.188555,-631.705166,784.845813,-10068.997501
12712.191078,19.142581,95.712904,-9934.999435
12712.193600,-516.849682,-899.701298,-9647.860723
12712.196123,210.568389,593.420005,-10164.710405
12712.198646,497.707101,421.136778,-10068.997501
12712.201169,-114.855485,-2105.683888,-9399.007173
12712.203692,-899.701298,-248.853550,-10145.567824
12712.206214,-765.703232,1014.556782,-10336.993632
12712.208737,38.285162,-1914.258080,-9169.296203
12712.211265,401.994197,267.996131,-9954.142016
12712.213793,-210.568389,2182.254211,-10604.989763
12712.216320,746.560651,-2335.394858,-9322.436850
12712.218848,-1741.974853,-593.420005,-9686.145885
12712.221376,-38.285162,-1033.699363,-9839.286531
12712.223904,-516.849682,3464.807125,-10987.841379
12712.226431,76.570323,-5474.778109,-8193.024582
12712.228959,1397.408398,4058.227130,-11217.552349
12712.231487,-2775.674216,957.129040,-10107.282662
12712.234014,-497.707101,-8614.161360,-7331.608446
12712.236542,-210.568389,16807.185942,-15065.211090
12712.239070,-2182.254211,-13859.228499,-5111.069074
12712.241598,-918.843878,5608.776174,-10834.700733
12712.244125,937.986459,8824.729749,-13457.234302
12712.246653,-957.129040,-15141.781413,-4575.076811
12712.249181,-593.420005,11294.122672,-13208.380752
12712.251708,-2220.539373,-2507.678085,-12710.673651
12712.254236,-1033.699363,-7197.610381,-7274.180704
12712.256764,76.570323,5953.342629,-11160.124606
12712.259292,287.138712,-1033.699363,-9839.286531
12712.261819,-1895.115499,-267.996131,-9475.577496
12712.264347,-1263.410333,1186.840010,-10279.565890
12712.266875,-1550.549045,-727.418070,-9667.003304
12712.269403,-669.990328,1339.980656,-10049.854920
12712.271930,-248.853550,-1167.697429,-9513.862658
12712.274458,-248.853550,1684.547110,-10509.276859
12712.276986,-593.420005,-114.855485,-9858.429112
12712.279513,-1244.267752,-708.275490,-9437.292334
12712.282041,-1569.691626,2852.244539,-10662.417506
12712.284569,-287.138712,1684.547110,-10260.423309
12712.287097,114.855485,-1875.972918,-8997.012976
12712.289624,-746.560651,1990.828403,-10375.278794
12712.292152,-1435.693560,1186.840010,-10126.425243
12712.294680,-1186.840010,-2526.820666,-8977.870395
12712.297207,-1473.978722,2450.250342,-10547.562021
12712.299735,918.843878,1741.974853,-10356.136213
12712.302263,-746.560651,-1761.117434,-9016.155557
12712.304791,516.849682,1167.697429,-10202.995566
12712.307318,-2947.957443,2507.678085,-10509.276859
12712.309846,248.853550,-4862.215523,-8556.733618
12712.312378,-0.000000,8729.016845,-12595.818166
12712.314910,-1205.982590,-1493.121302,-9226.723946
12712.317442,1014.556782,-8001.598774,-7331.608446
12712.319973,497.707101,16405.191746,-15371.492382
12712.322505,210.568389,-18376.877568,-4498.506488
12712.325037,-1722.832272,7101.897477,-11772.687192
12712.327569,1129.412267,5819.344563,-12500.105262
12712.330101,287.138712,-13093.525267,-5359.922624
12712.332633,937.986459,11810.972354,-13476.376883
12712.335165,-784.845813,-5053.641331,-8939.585234
12712.337697,-535.992262,-1761.117434,-8843.872330
12712.340228,114.855485,3981.656806,-11542.976222
12712.342760,-995.414202,-4402.793584,-8709.874264
12712.345292,459.421939,2641.676150,-10528.419440
12712.347824,478.564520,306.281293,-10088.140082
12712.350356,-287.138712,-1607.976787,-9628.718142
12712.352888,-497.707101,1244.267752,-10336.993632
12712.355420,-574.277424,-421.136778,-9686.145885
12712.357952,-497.707101,-38.285162,-9973.284597
12712.360483,535.992262,-516.849682,-9686.145885
12712.363015,382.851616,669.990328,-10222.138147
12712.365547,-708.275490,-1684.547110,-9571.290400
12712.368079,-803.988394,-248.853550,-10030.712339
12712.370611,-344.566454,1244.267752,-10470.991698
12712.373143,746.560651,-3062.812928,-9054.440718
12712.375675,-421.136778,2813.959378,-10681.560086
12712.378207,1110.269686,1473.978722,-10528.419440
12712.380738,-1665.404530,-3292.523898,-8805.587168
12712.383270,19.142581,650.847747,-10298.708470
12712.385802,-1339.980656,1684.547110,-10585.847182
12712.388334,1837.687757,-5053.641331,-8461.020714
12712.390866,-516.849682,6221.338760,-11696.116869
12712.393398,-2411.965181,-7503.891674,-7446.463931
12712.395930,440.279358,6125.625856,-11734.402030
12712.398462,-1971.685822,2947.957443,-10719.845248
12712.400993,-306.281293,-12098.111066,-5551.348432
12712.403525,-976.271621,19831.713709,-15850.056902
12712.406057,631.705166,-12557.533005,-6010.770371
12712.408589,-1818.545176,133.998066,-4957.928427
12712.411121,-0.000000,13782.658176,-14337.793019
12712.413656,-1856.830338,-6412.764568,-8384.450390
12712.416192,-708.275490,-784.845813,-8690.731683
12712.418727,-842.273555,5723.631659,-11830.114934
12712.421262,-497.707101,-3981.656806,-8652.446522
12712.423798,-95.712904,3656.232933,-10470.991698
12712.426333,-172.283227,-1550.549045,-9647.860723
12712.428868,-1493.121302,1244.267752,-10241.280728
12712.431404,-555.134843,382.851616,-9992.427178
12712.433939,-114.855485,114.855485,-9781.858789
12712.436474,-995.414202,153.140646,-9781.858789
12712.439010,-880.558717,-899.701298,-9628.718142
12712.441545,-1359.123237,2450.250342,-10509.276859
12712.444080,-784.845813,497.707101,-9934.999435
12712.446616,-459.421939,-2105.683888,-8958.727814
12712.449151,-267.996131,3407.379382,-10911.271056
12712.451687,-1493.121302,-248.853550,-9590.432981
12712.454222,-248.853550,-516.849682,-9494.720077
12712.456757,-593.420005,2679.961312,-10815.558152
12712.459293,-1512.263883,-555.134843,-9360.722011
12712.461828,-516.849682,-1627.119368,-9226.723946
12712.464363,-267.996131,4096.512291,-11083.554283
12712.466899,-612.562586,-2794.816797,-8901.300072
12712.469434,-229.710970,2086.541307,-10356.136213
12712.471969,-2373.680019,172.283227,-11198.409768
12712.474505,-172.283227,-8595.018779,-7389.036189
12712.477040,2507.678085,11428.120738,-13552.947206
12712.479575,-803.988394,-7848.458128,-7618.747158
12712.482111,-287.138712,-4536.791650,-8422.735552
12712.484646,-1665.404530,13935.798822,-14892.927862
12712.487182,421.136778,-17094.324654,-4345.365842
12712.489717,727.418070,8729.016845,-12366.107197
12712.492252,-689.132909,2048.256146,-11121.839445
12712.494788,382.851616,-8327.022648,-6699.903280
12712.497323,114.855485,8327.022648,-12634.103328
12712.499858,-535.992262,-5589.633594,-8595.018779
12712.502394,-1320.838075,1493.121302,-9877.571693
12712.504929,765.703232,2450.250342,-10681.560086
12712.507464,631.705166,-2392.822600,-9609.575562
12712.510000,-19.142581,1684.547110,-10356.136213
12712.512535,-746.560651,-803.988394,-9552.147819
12712.515074,-38.285162,-153.140646,-9934.999435
12712.517613,229.710970,1148.554848,-10356.136213
12712.520151,287.138712,-1990.828403,-9360.722011
12712.522690,248.853550,631.705166,-10126.425243
12712.525229,-153.140646,267.996131,-10222.138147
12712.527767,-421.136778,-2335.394858,-9245.866526
12712.530306,459.421939,784.845813,-10336.993632
12712.532845,-19.142581,-440.279358,-9915.856854
12712.535383,-172.283227,-1741.974853,-9188.438784
12712.537922,727.418070,325.423874,-10202.995566
12712.540461,-95.712904,2182.254211,-10700.702667
12712.543000,-401.994197,-4307.080680,-8652.446522
12712.545538,-497.707101,3617.947771,-11160.124606
12712.548077,-76.570323,-2890.529701,-9226.723946
12712.550616,1320.838075,574.277424,-10049.854920
12712.553154,-1971.685822,3905.086483,-10853.843314
12712.555693,-1110.269686,-9724.431046,-6987.041992
12712.558232,-229.710970,15543.775610,-14663.216893
12712.560770,-2258.824534,-10681.560086,-6412.764568
12712.563309,-765.703232,1091.127106,-9513.862658
12712.565848,535.992262,11849.257515,-15294.922059
12712.568387,-1359.123237,-7848.458128,-7752.745224
12712.570925,-1167.697429,-3024.527766,-8097.311678
12712.573464,-1033.699363,9322.436850,-13265.808494
12712.576003,-1301.695494,-6967.899411,-7523.034254
12712.578541,-210.568389,4670.789715,-10681.560086
12712.581080,-172.283227,-727.418070,-10049.854920
12712.583619,-1741.974853,555.134843,-9781.858789
12712.586157,-957.129040,708.275490,-9858.429112
12712.588696,-1225.125171,-1071.984525,-9590.432981
12712.591235,-631.705166,1837.687757,-10317.851051
12712.593774,-861.416136,-1186.840010,-9437.292334
12712.596312,-593.420005,708.275490,-10049.854920
12712.598851,-803.988394,1703.689691,-10432.706536
12712.601390,-631.705166,-593.420005,-9590.432981
12712.603928,-937.986459,727.418070,-9877.571693
12712.606467,-746.560651,1071.984525,-10068.997501
12712.609006,-1531.406464,593.420005,-9801.001370
12712.611544,-459.421939,-19.142581,-9820.143950
12712.614083,-593.420005,1186.840010,-10222.138147
12712.616625,-229.710970,1339.980656,-10126.425243
12712.619166,-1033.699363,-2258.824534,-9092.725880
12712.621707,-440.279358,2105.683888,-10509.276859
12712.624249,-1627.119368,-248.853550,-9743.573627
12712.626790,1071.984525,38.285162,-9915.856854
12712.629332,-191.425808,7637.889739,-12098.111066
12712.631873,-1282.552914,-9915.856854,-6872.186507
12712.634415,1990.828403,6833.901346,-12193.823970
12712.636956,-727.418070,3215.953574,-11083.554283
12712.639498,38.285162,-16194.623357,-4613.361973
12712.642039,-1665.404530,18032.311114,-16003.197549
12712.644580,727.418070,-11140.982026,-6738.188442
12712.647122,421.136778,-2335.394858,-8480.163294
12712.649663,-459.421939,9915.856854,-13533.804626
12712.652205,-306.281293,-9896.714274,-6699.903280
12712.654746,-325.423874,5168.496816,-11217.552349
12712.657288,-133.998066,-1895.115499,-9934.999435
12712.659829,-880.558717,-1148.554848,-8863.014910
12712.662371,-76.570323,3043.670347,-10681.560086
12712.664912,516.849682,-3081.955509,-9303.294269
12712.667453,-421.136778,1225.125171,-10107.282662
12712.669995,-267.996131,708.275490,-10222.138147
12712.672536,-57.427742,-1148.554848,-9609.575562
12712.675078,248.853550,497.707101,-10107.282662
12712.677619,172.283227,-631.705166,-9820.143950
12712.680161,-593.420005,306.281293,-10011.569758
12712.682702,-287.138712,-1320.838075,-9743.573627
12712.685244,593.420005,-306.281293,-10030.712339
12712.687785,-784.845813,-421.136778,-9839.286531
12712.690327,-287.138712,-612.562586,-9628.718142
12712.692868,861.416136,574.277424,-10317.851051
12712.695409,-229.710970,1799.402595,-10509.276859
12712.697951,-248.853550,-4077.369710,-8786.444587
12712.700492,-497.707101,4019.941968,-11255.837510
12712.703034,-57.427742,-3694.518094,-9150.153622
12712.705575,976.271621,1531.406464,-10470.991698
12712.708117,-2277.967115,1971.685822,-10260.423309
12712.710658,-689.132909,-7752.745224,-7599.604578
12712.713200,-287.138712,15103.496251,-14395.220762
12712.715741,-1914.258080,-12327.822035,-5685.346498
12712.718268,-1627.119368,4613.361973,-10815.558152
12712.720795,880.558717,8690.731683,-13284.951075
12712.723322,-1301.695494,-14337.793019,-6967.899411
12712.725849,-1378.265818,-516.849682,-8843.872330
12712.728376,-727.418070,7580.461997,-12844.671717
12712.730903,-1646.261949,-6489.334891,-7599.604578
12712.733430,-689.132909,4173.082614,-10470.991698
12712.735957,-593.420005,-497.707101,-10088.140082
12712.738484,-1339.980656,1205.982590,-10011.569758
12712.741011,-478.564520,133.998066,-9877.571693
12712.743538,-689.132909,-516.849682,-9667.003304
12712.746065,-1091.127106,1952.543242,-10432.706536
12712.748592,-555.134843,-1856.830338,-9284.151688
12712.751119,-861.416136,1914.258080,-10298.708470
12712.753646,-650.847747,57.427742,-9934.999435
12712.756174,-669.990328,-1205.982590,-9399.007173
12712.758701,-1167.697429,1933.400661,-10222.138147
12712.761228,-1320.838075,746.560651,-9801.001370
12712.763755,-133.998066,153.140646,-9762.716208
12712.766282,-459.421939,1378.265818,-10394.421374
12712.768809,-1531.406464,-248.853550,-9513.862658
12712.771336,-459.421939,-555.134843,-9609.575562
12712.773863,-995.414202,2833.101958,-10662.417506
12712.776390,-401.994197,-3158.525832,-8901.300072
12712.778917,-842.273555,3866.801322,-10930.413637
12712.781444,-1818.545176,-2737.389054,-8977.870395
12712.783971,1971.685822,1186.840010,-10509.276859
12712.786498,1493.121302,11715.259450,-13725.230434
12712.789025,-669.990328,-12863.814298,-6010.770371
12712.791552,38.285162,3751.945837,-10987.841379
12712.794079,-976.271621,7676.174901,-13016.954944
12712.796606,-363.709035,-16098.910453,-4441.078746
12712.799133,727.418070,12882.956878,-14146.367211
12712.801660,-0.000000,-3790.230998,-9322.436850
12712.804187,306.281293,-4383.651003,-7810.172966
12712.806714,287.138712,7235.895542,-12614.960747
12712.809241,-76.570323,-5302.494882,-8709.874264
12712.811768,-516.849682,2373.680019,-10279.565890
12712.814295,363.709035,-1952.543242,-9667.003304
12712.816822,-267.996131,267.996131,-10011.569758
12712.819354,-612.562586,2737.389054,-10624.132344
12712.821885,-612.562586,-2813.959378,-9092.725880
12712.824417,421.136778,995.414202,-10356.136213
12712.826948,440.279358,1550.549045,-10509.276859
12712.829480,-535.992262,-3617.947771,-8652.446522
12712.832011,-210.568389,2067.398726,-10624.132344
12712.834543,344.566454,-382.851616,-10202.995566
12712.837074,248.853550,-3101.098090,-9092.725880
12712.839606,-784.845813,1990.828403,-10643.274925
12712.842137,229.710970,-689.132909,-9724.431046
12712.844669,-191.425808,-1435.693560,-9399.007173
12712.847200,727.418070,2813.959378,-10987.841379
12712.849732,-803.988394,114.855485,-10088.140082
12712.852263,1186.840010,-2565.105827,-9188.438784
12712.854795,-1933.400661,2526.820666,-10700.702667
12712.857326,708.275490,-5666.203917,-8441.878133
12712.859858,-191.425808,9934.999435,-12921.242040
12712.862389,-2392.822600,-8480.163294,-6872.186507
12712.864921,-669.990328,2431.107762,-10451.849117
12712.867452,229.710970,11600.403965,-13648.660110
12712.869984,-76.570323,-16615.760134,-4019.941968
12712.872515,-957.129040,13323.236237,-14050.654307
12712.875047,-631.705166,-555.134843,-10356.136213
12712.877578,-1588.834206,-8709.874264,-6355.336826
12712.880110,765.703232,5225.924558,-11006.983960
12712.882641,-669.990328,3388.236802,-11504.691061
12712.885172,-421.136778,-3120.240670,-8441.878133
12712.887704,-516.849682,2871.387120,-10413.563955
12712.890235,-574.277424,-459.421939,-10145.567824
12712.892767,-1167.697429,976.271621,-9915.856854
12712.895298,-344.566454,-689.132909,-9475.577496
12712.897830,-57.427742,267.996131,-10049.854920
12712.900361,-880.558717,1741.974853,-10375.278794
12712.902893,-918.843878,-1282.552914,-9475.577496
12712.905424,-631.705166,803.988394,-10068.997501
12712.907956,-861.416136,1856.830338,-10336.993632
12712.910487,-1627.119368,-248.853550,-9303.294269
12712.913019,-287.138712,-880.558717,-9437.292334
12712.915550,-153.140646,2316.252277,-10719.845248
12712.918082,-976.271621,459.421939,-9628.718142
12712.920617,-1033.699363,-2565.105827,-8920.442653
12712.923152,-957.129040,3924.229064,-11121.839445
12712.925687,-784.845813,-2469.392923,-9150.153622
12712.928223,19.142581,2067.398726,-10298.708470
12712.930758,-2258.824534,-440.279358,-9628.718142
12712.933293,1378.265818,-1550.549045,-9571.290400
12712.935828,-287.138712,8231.309744,-12289.536874
12712.938363,-267.996131,-15199.209155,-5168.496816
12712.940898,555.134843,12825.529136,-14242.080115
12712.943434,-1167.697429,13227.523333,-14682.359474
12712.945969,191.425808,-17362.320786,-4192.225195
12712.948504,689.132909,9418.149754,-12768.101394
12712.951039,-57.427742,1493.121302,-11179.267187
12712.953574,-76.570323,-8001.598774,-6738.188442
12712.956109,248.853550,7848.458128,-12519.247843
12712.958645,114.855485,-3713.660675,-9322.436850
12712.961180,-248.853550,306.281293,-9552.147819
12712.963715,612.562586,-401.994197,-10068.997501
12712.966250,-440.279358,-823.130974,-9724.431046
12712.968785,-344.566454,1435.693560,-10164.710405
12712.971320,38.285162,-2335.394858,-9322.436850
12712.973856,153.140646,2469.392923,-10834.700733
12712.976391,574.277424,1990.828403,-10604.989763
12712.978926,-344.566454,-3043.670347,-8901.300072
12712.981461,76.570323,823.130974,-10336.993632
12712.983996,363.709035,-133.998066,-10356.136213
12712.986531,-880.558717,-2507.678085,-9092.725880
12712.989067,-708.275490,842.273555,-10088.140082
12712.991602,1454.836141,191.425808,-10298.708470
12712.994137,-459.421939,459.421939,-9839.286531
12712.996672,210.568389,-2488.535504,-9265.009107
12712.999207,-784.845813,3445.664544,-11083.554283
12713.001742,-95.712904,-3790.230998,-8958.727814
12713.004278,842.273555,2392.822600,-10700.702667
12713.006813,-1378.265818,6489.334891,-11696.116869
12713.009348,-1512.263883,-10509.276859,-6527.620053
12713.011883,-803.988394,12902.099459,-13706.087853
12713.014418,-746.560651,-3617.947771,-8595.018779
12713.016953,-918.843878,-6183.053598,-7082.754896
12713.019489,593.420005,15103.496251,-15026.925928
12713.022027,-1359.123237,-12538.390424,-5704.489078
12713.024566,-1263.410333,2890.529701,-10068.997501
12713.027105,-1014.556782,6317.051664,-12366.107197
12713.029644,-2239.681954,-8078.169098,-6795.616184
12713.032182,-842.273555,4938.785846,-10872.985894
12713.034721,-516.849682,1014.556782,-10585.847182
12713.037260,-555.134843,-267.996131,-9686.145885
12713.039798,-765.703232,765.703232,-9839.286531
12713.042337,-440.279358,-1914.258080,-9322.436850
12713.044876,-1129.412267,2316.252277,-10413.563955
12713.047415,-899.701298,516.849682,-9954.142016
12713.049953,-803.988394,-1856.830338,-9226.723946
12713.052492,-1014.556782,2411.965181,-10528.419440
12713.055031,-1627.119368,727.418070,-9820.143950
12713.057570,-669.990328,38.285162,-9437.292334
12713.060108,-344.566454,1129.412267,-10222.138147
12713.062647,-957.129040,38.285162,-9877.571693
12713.065186,-784.845813,1531.406464,-10107.282662
12713.067724,-689.132909,-1684.547110,-9360.722011
12713.070263,-191.425808,-1186.840010,-9418.149754
12713.072802,-2622.533570,2833.101958,-10528.419440
12713.075341,1588.834206,-2201.396792,-9303.294269
12713.077879,-1014.556782,5570.491013,-11236.694930
12713.080418,-1014.556782,-8748.159426,-7159.325219
12713.082957,1799.402595,8537.591037,-12844.671717
12713.085496,-306.281293,-1512.263883,-9667.003304
12713.088034,-19.142581,-12002.398162,-6010.770371
12713.090573,-1282.552914,16902.898846,-15754.343998
12713.093112,440.279358,-12729.816232,-5934.200048
12713.095650,153.140646,-76.570323,-9399.007173
12713.098189,-57.427742,8499.305875,-13342.378818
12713.100728,-976.271621,-4307.080680,-9035.298138
12713.103267,-497.707101,-2775.674216,-8346.165229
12713.105805,38.285162,3349.951640,-11255.837510
12713.108344,-38.285162,-2105.683888,-9571.290400
12713.110883,325.423874,267.996131,-9839.286531
12713.113421,-133.998066,-650.847747,-10011.569758
12713.115960,-937.986459,1052.841944,-10145.567824
12713.118499,248.853550,-133.998066,-9839.286531
12713.121038,593.420005,-574.277424,-9839.286531
12713.123579,382.851616,0.000000,-9954.142016
12713.126121,133.998066,-421.136778,-9858.429112
12713.128662,229.710970,-957.129040,-9896.714274
12713.131204,-784.845813,-1359.123237,-9686.145885
12713.133745,-95.712904,-459.421939,-9724.431046
12713.136287,861.416136,210.568389,-10183.852986
12713.138828,114.855485,1225.125171,-10183.852986
12713.141370,287.138712,-2277.967115,-9322.436850
12713.143911,-995.414202,2392.822600,-10566.704602
12713.146453,-153.140646,-2775.674216,-9360.722011
12713.148994,976.271621,2431.107762,-10777.272990
12713.151536,-2450.250342,-937.986459,-9341.579430
12713.154077,248.853550,-4689.932296,-8480.163294
12713.156619,-401.994197,13552.947206,-13897.513661
12713.159160,-1990.828403,-13361.521398,-5130.211654
12713.161702,-2392.822600,8154.739421,-11983.255581
12713.164243,746.560651,15294.922059,-15065.211090
12713.166785,-1435.693560,-11026.126541,-6317.051664
12713.169326,-1531.406464,555.134843,-9303.294269
12713.171868,-650.847747,7810.172966,-12940.384621
12713.174409,-2335.394858,-8193.024582,-6795.616184
12713.176951,-937.986459,3694.518094,-10298.708470
12713.179492,-287.138712,3158.525832,-11255.837510
12713.182034,-535.992262,-1990.828403,-8882.157491
12713.184575,-478.564520,478.564520,-9781.858789
12713.187117,-1454.836141,-459.421939,-9896.714274
12713.189658,-727.418070,1818.545176,-10394.421374
12713.192200,-19.142581,497.707101,-9954.142016
12713.194741,-555.134843,-1263.410333,-9379.864592
12713.197283,-1359.123237,114.855485,-9686.145885
12713.199824,-1646.261949,3694.518094,-10719.845248
12713.202366,-95.712904,-1971.685822,-8997.012976
12713.204907,-267.996131,803.988394,-10030.712339
12713.207449,-1454.836141,2813.959378,-10700.702667
12713.209990,-1129.412267,-4153.940034,-8461.020714
12713.212532,-995.414202,3809.373579,-10949.556218
12713.215073,95.712904,-1033.699363,-9743.573627
12713.217615,-1665.404530,803.988394,-9590.432981
12713.220156,-937.986459,-2009.970984,-9226.723946
12713.222698,1856.830338,4632.504554,-11581.261384
12713.225225,-1895.115499,-650.847747,-12366.107197
12713.227752,-248.853550,-14873.785282,-5091.926493
12713.230280,784.845813,10853.843314,-13648.660110
12713.232807,229.710970,-210.568389,-10413.563955
12713.235334,-1091.127106,-12576.675586,-5283.352301
12713.237861,535.992262,15467.205286,-15352.349802
12713.240388,650.847747,-8231.309744,-7637.889739
12713.242915,210.568389,-2124.826469,-8556.733618
12713.245443,535.992262,8231.309744,-13227.523333
12713.247970,-95.712904,-6757.331022,-8001.598774
12713.250497,-612.562586,631.705166,-9686.145885
12713.253024,-172.283227,1205.982590,-10834.700733
12713.255551,-172.283227,-1110.269686,-9552.147819
12713.258079,-459.421939,-287.138712,-9494.720077
12713.260606,-133.998066,-1320.838075,-9399.007173
12713.263133,229.710970,1684.547110,-10662.417506
12713.265660,612.562586,-248.853550,-9896.714274
12713.268187,650.847747,-2258.824534,-9284.151688
12713.270714,-19.142581,995.414202,-10719.845248
12713.273242,-1186.840010,-593.420005,-9877.571693
12713.275769,-708.275490,-1493.121302,-9456.434915
12713.278296,1512.263883,574.277424,-10413.563955
12713.280823,191.425808,1856.830338,-10394.421374
12713.283350,-19.142581,-3503.092286,-8805.587168
12713.285878,-1014.556782,3043.670347,-10930.413637
12713.288405,-1550.549045,-2488.535504,-10317.851051
12713.290932,1741.974853,-1875.972918,-9552.147819
12713.293459,-1014.556782,5704.489078,-11447.263318
12713.295986,-880.558717,-9954.142016,-6833.901346
12713.298513,-1071.984525,12385.249778,-13572.089787
12713.301041,-937.986459,-3215.953574,-8748.159426
12713.303568,-1435.693560,-5972.485210,-7197.610381
12713.306095,861.416136,14356.935600,-14778.072378
12713.308622,-1818.545176,-11868.400096,-5876.772306
12713.311149,-1339.980656,1914.258080,-9915.856854
12713.313677,-803.988394,7197.610381,-12863.814298
12713.316204,-2354.537438,-8882.157491,-6546.762634
12713.318731,-784.845813,4996.213589,-10853.843314
12713.321258,-708.275490,5417.350366,-11734.402030
12713.323785,-1033.699363,-1761.117434,-9475.577496
12713.326317,440.279358,382.851616,-9762.716208
12713.328849,-842.273555,191.425808,-10011.569758
12713.331381,-1435.693560,-669.990328,-9552.147819
12713.333912,-880.558717,2029.113565,-10413.563955
12713.336444,-689.132909,-133.998066,-9609.575562
12713.338976,-1512.263883,114.855485,-9590.432981
12713.341508,-459.421939,3464.807125,-10777.272990
12713.344039,153.140646,-1282.552914,-9399.007173
12713.346571,-1512.263883,-210.568389,-9533.005238
12713.349103,-153.140646,3292.523898,-11026.126541
12713.351635,-1282.552914,1684.547110,-10451.849117
12713.354167,267.996131,-3024.527766,-8863.014910
12713.356698,-2431.107762,3847.658741,-10758.130410
12713.359230,765.703232,-2852.244539,-9207.581365
12713.361762,593.420005,5800.201982,-11523.833642
12713.364294,-1531.406464,-7255.038123,-7599.604578
12713.366825,1167.697429,2928.814862,-11121.839445
12713.369357,57.427742,7216.752962,-12442.677520
12713.371889,574.277424,-18204.594341,-4096.512291
12713.374421,-1091.127106,15543.775610,-15084.353670
12713.376952,382.851616,-4555.934230,-8901.300072
12713.379484,-382.851616,-8633.303941,-6527.620053
12713.382016,210.568389,12117.253646,-14184.652373
12713.384548,-899.701298,1435.693560,-11006.983960
12713.387080,-344.566454,-6604.190376,-7197.610381
12713.389611,287.138712,4307.080680,-11523.833642
12713.392143,114.855485,-1646.261949,-9934.999435
12713.394675,-153.140646,-325.423874,-9341.579430
12713.397207,-516.849682,-325.423874,-9820.143950
12713.399738,-593.420005,-497.707101,-10030.712339
12713.402270,287.138712,1837.687757,-10566.704602
12713.404802,784.845813,-1818.545176,-9437.292334
12713.407334,823.130974,-574.277424,-9839.286531
12713.409866,-287.138712,401.994197,-10298.708470
12713.412397,-937.986459,-1933.400661,-9341.579430
12713.414929,459.421939,-899.701298,-9686.145885
12713.417461,57.427742,-248.853550,-9896.714274
12713.419993,746.560651,880.558717,-10241.280728
12713.422524,-382.851616,38.285162,-9877.571693
12713.425056,689.132909,-1148.554848,-9686.145885
12713.427592,-2354.537438,229.710970,-9992.427178
12713.430127,1895.115499,-1933.400661,-9571.290400
12713.432663,-650.847747,7369.893608,-12002.398162
12713.435198,-1665.404530,-10604.989763,-6393.621987
12713.437734,-1110.269686,9992.427178,-12882.956878
12713.440269,-363.709035,1780.260014,-10470.991698
12713.442805,-1071.984525,-10164.710405,-5876.772306
12713.445341,172.283227,14682.359474,-14797.214958
12713.447876,95.712904,5053.641331,-12155.538808
12713.450412,-2201.396792,-10432.706536,-5857.629725
12713.452947,765.703232,8097.311678,-12442.677520
12713.455483,-1512.263883,-133.998066,-10164.710405
12713.458018,-1378.265818,-3809.373579,-7733.602643
12713.460554,-1167.697429,4938.785846,-11198.409768
12713.463089,-1263.410333,-344.566454,-10126.425243
12713.465625,267.996131,-1033.699363,-9360.722011
12713.468160,-957.129040,957.129040,-10049.854920
12713.470696,-1378.265818,-191.425808,-9724.431046
12713.473232,-1473.978722,535.992262,-9973.284597
12713.475767,-1052.841944,957.129040,-10030.712339
12713.478303,-535.992262,267.996131,-9743.573627
12713.480838,76.570323,459.421939,-9858.429112
12713.483374,-1703.689691,976.271621,-10030.712339
12713.485909,-210.568389,325.423874,-9915.856854
12713.488445,-1244.267752,574.277424,-10145.567824
12713.490980,-497.707101,-1110.269686,-9475.577496
12713.493516,-1741.974853,1320.838075,-10164.710405
12713.496051,1320.838075,1282.552914,-10356.136213
12713.498587,-2431.107762,325.423874,-9628.718142
12713.501123,229.710970,-4709.074877,-8652.446522
12713.503658,1091.127106,10662.417506,-13476.376883
12713.506194,-535.992262,-11332.407834,-6355.336826
12713.508729,267.996131,-12691.531070,-5666.203917
12713.511265,-861.416136,15084.353670,-15199.209155
12713.513800,38.285162,-9647.860723,-6967.899411
12713.516336,-153.140646,-2622.533570,-8422.735552
12713.518871,612.562586,9207.581365,-13457.234302
12713.521407,-842.273555,-7637.889739,-7216.752962
12713.523942,76.570323,2297.109696,-10202.995566
12713.526478,803.988394,2411.965181,-11332.407834
12713.529017,344.566454,-3483.949706,-8671.589102
12713.531557,421.136778,669.990328,-9954.142016
12713.534096,-459.421939,325.423874,-10183.852986
12713.536635,-229.710970,-172.283227,-9839.286531
12713.539174,-191.425808,-478.564520,-9877.571693
12713.541713,708.275490,-861.416136,-9781.858789
12713.544252,918.843878,-57.427742,-10030.712339
12713.546791,-976.271621,-842.273555,-9762.716208
12713.549330,-861.416136,-1722.832272,-9418.149754
12713.551869,765.703232,1627.119368,-10643.274925
12713.554409,-612.562586,-2220.539373,-9150.153622
12713.556948,421.136778,-650.847747,-9647.860723
12713.559487,-421.136778,3215.953574,-11045.269122
12713.562026,1071.984525,-4134.797453,-8748.159426
12713.564565,-2411.965181,1952.543242,-10298.708470
12713.567104,669.990328,-3158.525832,-9399.007173
12713.569643,-267.996131,7618.747158,-12059.825904
12713.572182,-1091.127106,1263.410333,-9915.856854
12713.574721,-1205.982590,-9284.151688,-6757.331022
12713.577261,-1129.412267,16673.187877,-15141.781413
12713.579800,229.710970,-10260.423309,-6604.190376
12713.582339,-976.271621,-784.845813,-9169.296203
12713.584878,478.564520,11447.263318,-14069.796888
12713.587417,-2009.970984,-10700.702667,-6221.338760
12713.589956,842.273555,3790.230998,-10719.845248
12713.592495,-899.701298,4689.932296,-11868.400096
12713.595034,-1722.832272,-5551.348432,-7580.461997
12713.597574,-1282.552914,3771.088418,-10394.421374
12713.600113,-1148.554848,899.701298,-10700.702667
12713.602652,210.568389,-861.416136,-9743.573627
12713.605191,-57.427742,1741.974853,-10164.710405
12713.607730,-382.851616,-535.992262,-9628.718142
12713.610272,-1971.685822,133.998066,-9820.143950
12713.612814,-937.986459,3349.951640,-10738.987829
12713.615356,-421.136778,-2373.680019,-8920.442653
12713.617898,-555.134843,2105.683888,-10260.423309
12713.620440,-1225.125171,2641.676150,-10566.704602
12713.622983,-1282.552914,-4536.791650,-8461.020714
12713.625525,-1167.697429,4173.082614,-11064.411702
12713.628067,-287.138712,-1454.836141,-9609.575562
12713.630609,-1071.984525,535.992262,-9513.862658
12713.633151,-1263.410333,-1033.699363,-9571.290400
12713.635693,823.130974,-3101.098090,-9322.436850
12713.638235,191.425808,9667.003304,-12844.671717
12713.640777,-248.853550,-13514.662045,-5532.205851
12713.643319,382.851616,6910.471669,-12117.253646
12713.645861,-57.427742,4019.941968,-11887.542677
12713.648404,-727.418070,-15199.209155,-4632.504554
12713.650946,401.994197,14739.787216,-14931.213024
12713.653488,1052.841944,-4977.071008,-8977.870395
12713.656030,57.427742,-5321.637462,-7446.463931
12713.658572,191.425808,9169.296203,-13265.808494
12713.661114,-689.132909,-5627.918755,-8346.165229
12713.663656,-325.423874,-861.416136,-9303.294269
12713.666198,-38.285162,2086.541307,-10413.563955
12713.668740,76.570323,1033.699363,-10394.421374
12713.671282,229.710970,-191.425808,-9609.575562
12713.673825,57.427742,-2029.113565,-9456.434915
12713.676367,267.996131,976.271621,-10528.419440
12713.678909,325.423874,210.568389,-10049.854920
12713.681451,-689.132909,-2699.103893,-9016.155557
12713.683993,-401.994197,1435.693560,-10624.132344
12713.686535,823.130974,-899.701298,-10011.569758
12713.689077,-842.273555,-1091.127106,-9399.007173
12713.691619,746.560651,-401.994197,-9915.856854
12713.694161,-1186.840010,1627.119368,-10451.849117
12713.696703,976.271621,-2852.244539,-9552.147819
12713.699246,-191.425808,2411.965181,-10604.989763
12713.701788,-2603.390989,-3177.668413,-8729.016845
12713.704330,267.996131,976.271621,-10222.138147
12713.706872,-861.416136,7159.325219,-11849.257515
12713.709414,-1339.980656,-12557.533005,-5608.776174
12713.711959,-1856.830338,14261.222696,-14318.650438
12713.714503,535.992262,-3560.520029,-9054.440718
12713.717048,-1225.125171,-7197.610381,-7025.327154
12713.719592,459.421939,13323.236237,-14471.791085
12713.722137,-1684.547110,-7542.176835,-7676.174901
12713.724682,478.564520,-497.707101,-9207.581365
12713.727226,-459.421939,7178.467800,-12614.960747
12713.729771,-765.703232,-19.142581,-10088.140082
12713.732316,-1359.123237,-2392.822600,-8384.450390
12713.734860,-555.134843,1454.836141,-10528.419440
12713.737405,-708.275490,957.129040,-10547.562021
12713.739949,-325.423874,325.423874,-9552.147819
12713.742494,-421.136778,-784.845813,-9475.577496
12713.745039,-1569.691626,2641.676150,-10681.560086
12713.747583,-535.992262,-191.425808,-9686.145885
12713.750128,-708.275490,-765.703232,-9341.579430
12713.752673,-1397.408398,3943.371645,-10758.130410
12713.755217,-497.707101,-2239.681954,-9131.011042
12713.757762,-1301.695494,1646.261949,-10356.136213
12713.760306,363.709035,535.992262,-10394.421374
12713.762851,-1799.402595,497.707101,-9571.290400
12713.765396,-1033.699363,-3866.801322,-8556.733618
12713.767940,1818.545176,7101.897477,-12423.534939
12713.770485,-1512.263883,-3713.660675,-8518.448456
12713.773030,823.130974,-5493.920690,-8193.024582
12713.775574,459.421939,14165.509792,-14816.357539
12713.778119,861.416136,-16290.336261,-4900.500685
12713.780663,-918.843878,5570.491013,-11485.548480
12713.783208,114.855485,5915.057467,-12423.534939
12713.785753,-133.998066,-13265.808494,-5245.067139
12713.788297,-0.000000,9035.298138,-12806.386555
12713.790842,-727.418070,-1091.127106,-10068.997501
12713.793387,-708.275490,-6546.762634,-7695.317482
12713.795931,-267.996131,1531.406464,-10202.995566
12713.798476,248.853550,918.843878,-10872.985894
12713.801021,153.140646,-1531.406464,-9265.009107
12713.803565,-478.564520,-57.427742,-9533.005238
12713.806110,-191.425808,-421.136778,-10202.995566
12713.808654,-95.712904,459.421939,-10298.708470
12713.811199,57.427742,-2239.681954,-9303.294269
12713.813746,-440.279358,650.847747,-10202.995566
12713.816293,344.566454,574.277424,-10241.280728
12713.818840,708.275490,-3005.385186,-9322.436850
12713.821387,-497.707101,2067.398726,-10604.989763
12713.823934,612.562586,-267.996131,-10088.140082
12713.826480,-765.703232,-210.568389,-9667.003304
12713.829027,478.564520,-861.416136,-9992.427178
12713.831574,727.418070,3215.953574,-11026.126541
12713.834121,-3043.670347,-3713.660675,-8173.882002
12713.836668,382.851616,-593.420005,-9762.716208
12713.839215,-497.707101,10815.558152,-13150.953010
12713.841762,-1741.974853,-14644.074312,-4766.502619
12713.844309,-1990.828403,12040.683323,-13552.947206
12713.846856,669.990328,1569.691626,-10853.843314
12713.849403,-765.703232,-11676.974288,-5474.778109
12713.851950,-153.140646,14261.222696,-14605.789150
12713.854496,-784.845813,-5072.783912,-12461.820101
12713.857043,-1244.267752,-8767.302006,-6585.047795
12713.859590,153.140646,6010.770371,-11428.120738
12713.862137,-267.996131,1454.836141,-10604.989763
12713.864684,-1359.123237,-3177.668413,-8288.737486
12713.867231,-325.423874,1703.689691,-10585.847182
12713.869778,-1129.412267,1052.841944,-10509.276859
12713.872325,-1186.840010,-1014.556782,-9111.868461
12713.874872,-287.138712,1282.552914,-9973.284597
12713.877419,-555.134843,1665.404530,-10432.706536
12713.879966,-516.849682,-612.562586,-9571.290400
12713.882512,-1722.832272,1263.410333,-10011.569758
12713.885059,-0.000000,2143.969050,-10394.421374
12713.887606,-842.273555,1244.267752,-10164.710405
12713.890153,267.996131,-1646.261949,-9341.579430
12713.892700,-2239.681954,823.130974,-10107.282662
12713.895247,1761.117434,1263.410333,-10490.134278
12713.897794,-2986.242605,995.414202,-9743.573627
12713.900341,133.998066,-7235.895542,-7791.030386
12713.902888,2009.970984,12614.960747,-14165.509792
12713.905435,-325.423874,-10279.565890,-6585.047795
12713.907982,-19.142581,-2220.539373,-9035.298138
12713.910528,-669.990328,12825.529136,-14854.642701
12713.913075,-976.271621,-17036.896912,-4249.652938
12713.915624,593.420005,8575.876198,-12461.820101
12713.918173,842.273555,11830.114934,-14280.365277
12713.920721,-76.570323,-8059.026517,-7446.463931
12713.923270,-344.566454,727.418070,-9475.577496
12713.925819,306.281293,3943.371645,-11791.829773
12713.928368,-842.273555,-3905.086483,-8575.876198
12713.930916,1129.412267,-153.140646,-9858.429112
12713.933465,880.558717,2813.959378,-10987.841379
12713.936014,-38.285162,-1780.260014,-9207.581365
12713.938562,516.849682,-1473.978722,-9571.290400
12713.941111,-306.281293,2354.537438,-11102.696864
12713.943660,-172.283227,-2871.387120,-9092.725880
12713.946208,-0.000000,-133.998066,-9705.288466
12713.948757,1263.410333,727.418070,-10643.274925
12713.951306,114.855485,344.566454,-10260.423309
12713.953854,191.425808,-2488.535504,-9111.868461
12713.956403,-1033.699363,1914.258080,-10470.991698
12713.958952,650.847747,-1646.261949,-9705.288466
12713.961501,918.843878,2813.959378,-10681.560086
12713.964049,-2909.672282,-3062.812928,-8537.591037
12713.966598,248.853550,-918.843878,-9590.432981
12713.969147,-1473.978722,10738.987829,-13055.240106
12713.971695,-1761.117434,-14548.361408,-4938.785846
12713.974244,-1799.402595,11925.827838,-13629.517530
12713.976793,535.992262,1225.125171,-10662.417506
12713.979341,-612.562586,-11198.409768,-5704.489078
12713.981890,-1531.406464,6068.198114,-11179.267187
12713.984439,-784.845813,5455.635528,-12251.251712
12713.986987,-1741.974853,-8556.733618,-6565.905214
12713.989536,497.707101,6546.762634,-11715.259450
12713.992085,-153.140646,1033.699363,-10547.562021
12713.994634,-1799.402595,-3847.658741,-8020.741355
12713.997182,-248.853550,2565.105827,-10738.987829
12713.999731,-631.705166,2258.824534,-10872.985894
12714.002280,-1014.556782,-3158.525832,-8422.735552
12714.004828,229.710970,3024.527766,-10585.847182
12714.007377,-210.568389,1703.689691,-10451.849117
12714.009926,-1052.841944,-2660.818731,-8690.731683
12714.012474,-2105.683888,4383.651003,-10930.413637
12714.015023,19.142581,957.129040,-10202.995566
12714.017573,-1416.550979,-57.427742,-9533.005238
12714.020123,765.703232,650.847747,-10202.995566
12714.022673,-1837.687757,535.992262,-9801.001370
12714.025223,-803.988394,-3369.094221,-8824.729749
12714.027773,1282.552914,6661.618118,-12174.681389
12714.030323,-1282.552914,-4728.217458,-8327.022648
12714.032873,1282.552914,-3273.381317,-9016.155557
12714.035423,765.703232,12232.109131,-14012.369146
12714.037973,421.136778,-15830.914322,-4900.500685
12714.040523,-937.986459,7293.323285,-12327.822035
12714.043073,-842.273555,3579.662610,-11638.689126
12714.045623,612.562586,-11313.265253,-6451.049730
12714.048173,38.285162,1416.550979,-9781.858789
12714.050723,-133.998066,5436.492947,-12366.107197
12714.053272,-1129.412267,-6719.045861,-7599.604578
12714.055822,38.285162,2603.390989,-10547.562021
12714.058372,-248.853550,803.988394,-10758.130410
12714.060922,95.712904,-1741.974853,-9073.583299
12714.063472,248.853550,593.420005,-9877.571693
12714.066022,382.851616,-440.279358,-10088.140082
12714.068572,-382.851616,-325.423874,-9934.999435
12714.071122,-516.849682,-1186.840010,-9743.573627
12714.073672,133.998066,-76.570323,-10011.569758
12714.076222,1263.410333,-727.418070,-10088.140082
12714.078772,-497.707101,593.420005,-10068.997501
12714.081322,-95.712904,-2660.818731,-9226.723946
12714.083872,-1148.554848,1914.258080,-10451.849117
12714.086422,1301.695494,-1531.406464,-9724.431046
12714.088972,-191.425808,2507.678085,-10547.562021
12714.091522,-2545.963246,-4345.365842,-8173.882002
12714.094072,535.992262,3426.521963,-10892.128475
12714.096622,-2124.826469,4441.078746,-10930.413637
12714.099172,-1397.408398,-11562.118803,-6029.912952
12714.101722,-1320.838075,15428.920125,-14778.072378
12714.104272,497.707101,-6872.186507,-7733.602643
12714.106822,-76.570323,-4364.508422,-7982.456194
12714.109372,-497.707101,12002.398162,-13533.804626
12714.111922,-1435.693560,-765.703232,-10222.138147
12714.114472,-1359.123237,-6680.760699,-6853.043926
12714.117022,344.566454,9533.005238,-13036.097525
12714.119573,-899.701298,-3273.381317,-8977.870395
12714.122124,-593.420005,-2182.254211,-8518.448456
12714.124676,-899.701298,4307.080680,-11523.833642
12714.127227,-1301.695494,-1607.976787,-9360.722011
12714.129779,-1512.263883,-95.712904,-9513.862658
12714.132330,287.138712,2220.539373,-10624.132344
12714.134881,-937.986459,-421.136778,-9494.720077
12714.137433,-1110.269686,842.273555,-9820.143950
12714.139984,-918.843878,2316.252277,-10394.421374
12714.142536,-401.994197,-191.425808,-9686.145885
12714.145087,-1244.267752,325.423874,-9705.288466
12714.147638,-363.709035,401.994197,-10164.710405
12714.150190,-76.570323,1722.832272,-10317.851051
12714.152741,-2756.531635,-3962.514226,-8461.020714
12714.155293,1301.695494,2048.256146,-10796.415571
12714.157844,-727.418070,6049.055533,-11638.689126
12714.160395,363.709035,-14663.216893,-5130.211654
12714.162947,918.843878,14222.937534,-14586.646570
12714.165498,363.709035,-5436.492947,-8709.874264
12714.168050,-842.273555,-8824.729749,-6872.186507
12714.170601,-325.423874,14835.500120,-13342.378818
12714.173152,1416.550979,306.281293,-10796.415571
12714.175704,555.134843,-8135.596840,-6661.618118
12714.178255,57.427742,8250.452325,-12787.243974
12714.180807,-1416.550979,-3751.945837,-9131.011042
12714.183358,-593.420005,-1741.974853,-8805.587168
12714.185909,-133.998066,2756.531635,-11140.982026
12714.188461,229.710970,-1588.834206,-9513.862658
12714.191012,401.994197,-172.283227,-9628.718142
12714.193564,-0.000000,-95.712904,-10107.282662
12714.196115,-976.271621,-708.275490,-9877.571693
12714.198666,-57.427742,-153.140646,-10030.712339
12714.201218,842.273555,-1110.269686,-9724.431046
12714.203769,-708.275490,-1071.984525,-9724.431046
12714.206321,-0.000000,-440.279358,-9877.571693
12714.208872,-1110.269686,689.132909,-10202.995566
12714.211423,880.558717,-1588.834206,-9590.432981
12714.213975,-1665.404530,1167.697429,-10164.710405
12714.216526,1014.556782,-3120.240670,-9322.436850
12714.219078,248.853550,8882.157491,-12461.820101
12714.221630,-2737.389054,-9284.151688,-6527.620053
12714.224183,-1473.978722,4996.213589,-11217.552349
12714.226735,-0.000000,8116.454259,-12768.101394
12714.229287,76.570323,-14414.363342,-4613.361973
12714.231840,229.710970,13418.949141,-14146.367211
12714.234392,-516.849682,-3158.525832,-13763.515595
12714.236945,-2699.103893,-12653.245909,-5283.352301
12714.239497,-555.134843,7714.460062,-11830.114934
12714.242050,-191.425808,1607.976787,-10815.558152
12714.244602,-918.843878,-5111.069074,-7867.600709
12714.247154,191.425808,5857.629725,-11734.402030
12714.249707,-1722.832272,-1607.976787,-9590.432981
12714.252259,-1225.125171,-1263.410333,-8882.157491
12714.254812,-1091.127106,3866.801322,-11102.696864
12714.257364,-478.564520,-1837.687757,-9245.866526
12714.259917,-516.849682,95.712904,-9590.432981
12714.262469,-918.843878,3273.381317,-10738.987829
12714.265021,-1359.123237,-287.138712,-10183.852986
12714.267574,-976.271621,-1646.261949,-9150.153622
12714.270126,-899.701298,2411.965181,-10451.849117
12714.272679,-937.986459,-516.849682,-9781.858789
12714.275231,382.851616,1703.689691,-10260.423309
12714.277784,-2775.674216,-2947.957443,-8843.872330
12714.280336,1167.697429,344.566454,-10356.136213
12714.282888,-535.992262,7733.602643,-12193.823970
12714.285441,267.996131,-15582.060771,-4977.071008
12714.287993,957.129040,13667.802691,-14376.078181
12714.290546,421.136778,-3464.807125,-9284.151688
12714.293098,-899.701298,-10853.843314,-6106.483275
12714.295651,133.998066,15984.054968,-15620.345933
12714.298203,1493.121302,1818.545176,-11466.405899
12714.300755,593.420005,-9245.866526,-6202.196179
12714.303308,-172.283227,8441.878133,-12825.529136
12714.305860,-1359.123237,-3732.803256,-9399.007173
12714.308413,-765.703232,-1493.121302,-8843.872330
12714.310965,497.707101,2794.816797,-11045.269122
12714.313518,38.285162,-1263.410333,-9590.432981
12714.316070,459.421939,-803.988394,-9628.718142
12714.318622,191.425808,842.273555,-10413.563955
12714.321175,-535.992262,-555.134843,-9801.001370
12714.323728,114.855485,-1244.267752,-9647.860723
12714.326281,1378.265818,-153.140646,-10279.565890
12714.328834,-248.853550,-535.992262,-10470.991698
12714.331387,191.425808,-2431.107762,-9226.723946
12714.333940,-1014.556782,1186.840010,-10279.565890
12714.336493,880.558717,-1014.556782,-10049.854920
12714.339046,478.564520,3139.383251,-10738.987829
12714.341599,-3273.381317,-4689.932296,-8059.026517
12714.344152,650.847747,1952.543242,-10624.132344
12714.346705,-1359.123237,7886.743290,-12002.398162
12714.349258,-1875.972918,-14203.794954,-4977.071008
12714.351811,-1665.404530,14931.213024,-14586.646570
12714.354364,19.142581,-3369.094221,-9188.438784
12714.356917,153.140646,-8116.454259,-6719.045861
12714.359470,-401.994197,15065.211090,-14912.070443
12714.362023,-1186.840010,1397.408398,-10930.413637
12714.364576,-1684.547110,-7235.895542,-6853.043926
12714.367129,-76.570323,8709.874264,-12538.390424
12714.369683,-440.279358,-2756.531635,-9379.864592
12714.372236,-555.134843,-2124.826469,-8729.016845
12714.374789,-918.843878,3751.945837,-11217.552349
12714.377342,-1684.547110,-842.273555,-9341.579430
12714.379895,-1301.695494,-478.564520,-9303.294269
12714.382448,210.568389,2488.535504,-10719.845248
12714.385001,-1282.552914,-38.285162,-9494.720077
12714.387554,-1531.406464,842.273555,-9609.575562
12714.390107,-440.279358,1684.547110,-10451.849117
12714.392660,-1148.554848,114.855485,-10202.995566
12714.395213,-344.566454,-1435.693560,-9341.579430
12714.397766,-1205.982590,2947.957443,-10470.991698
12714.400319,-1435.693560,-4881.358104,-8441.878133
12714.402872,1933.400661,5570.491013,-11810.972354
12714.405425,-1512.263883,-746.560651,-9533.005238
12714.407978,727.418070,-9226.723946,-7044.469734
12714.410531,650.847747,16213.765938,-15333.207221
12714.413084,574.277424,-14912.070443,-5245.067139
12714.415637,-823.130974,1971.685822,-10279.565890
12714.418190,-823.130974,9418.149754,-13591.232368
12714.420743,191.425808,-15448.062706,-4670.789715
12714.423296,229.710970,8614.161360,-12442.677520
12714.425850,-38.285162,7446.463931,-12806.386555
12714.428404,-861.416136,-6412.764568,-8001.598774
12714.430958,-382.851616,1416.550979,-10030.712339
12714.433511,-19.142581,1741.974853,-10892.128475
12714.436065,-19.142581,-899.701298,-9418.149754
12714.438619,918.843878,-1052.841944,-9590.432981
12714.441173,267.996131,1014.556782,-10624.132344
12714.443726,-459.421939,-765.703232,-9820.143950
12714.446280,229.710970,-1741.974853,-9475.577496
12714.448834,957.129040,95.712904,-10413.563955
12714.451388,133.998066,-172.283227,-9973.284597
12714.453942,344.566454,-1684.547110,-9379.864592
12714.456495,-306.281293,631.705166,-10030.712339
12714.459049,-38.285162,-1378.265818,-9724.431046
12714.461603,1627.119368,3158.525832,-10853.843314
12714.464157,-2813.959378,-1512.263883,-8939.585234
12714.466710,-76.570323,-4211.367776,-8690.731683
12714.469264,-880.558717,13514.662045,-13954.941403
12714.471818,-1780.260014,-13610.374949,-5130.211654
12714.474372,-1856.830338,7101.897477,-11906.685258
12714.476926,382.851616,6642.475538,-12538.390424
12714.479479,-382.851616,-13801.800757,-4996.213589
12714.482033,-746.560651,13227.523333,-13993.226565
12714.484587,-1531.406464,-2565.105827,-9571.290400
12714.487141,-1818.545176,-4230.510357,-6833.901346
12714.489694,-57.427742,5685.346498,-11140.982026
12714.492248,631.705166,1052.841944,-10834.700733
12714.494802,-1454.836141,-3177.668413,-8518.448456
12714.497356,-1014.556782,1627.119368,-10164.710405
12714.499910,-1550.549045,1971.685822,-10528.419440
12714.502463,-1091.127106,-803.988394,-9341.579430
12714.505017,-440.279358,114.855485,-9801.001370
12714.507571,-1512.263883,3177.668413,-10662.417506
12714.510125,-593.420005,-421.136778,-9437.292334
12714.512678,-1167.697429,440.279358,-9896.714274
12714.515232,-631.705166,1780.260014,-10470.991698
12714.517786,-1550.549045,-1741.974853,-9322.436850
12714.520340,1359.123237,-76.570323,-9896.714274
12714.522894,-1875.972918,3981.656806,-10892.128475
12714.525447,-172.283227,-9743.573627,-6967.899411
12714.528001,1761.117434,11657.831707,-13840.085918
12714.530555,38.285162,-6125.625856,-8116.454259
12714.533109,-555.134843,-6527.620053,-7542.176835
12714.535663,-593.420005,14069.796888,-14988.640766
12714.538217,-727.418070,-14146.367211,-5379.065205
12714.540771,1244.267752,4613.361973,-11140.982026
12714.543325,1244.267752,5359.922624,-12538.390424
12714.545879,401.994197,-10126.425243,-6221.338760
12714.548434,-784.845813,6814.758765,-11925.827838
12714.550988,191.425808,-1129.412267,-11657.831707
12714.553542,-382.851616,-2622.533570,-9073.583299
12714.556096,631.705166,172.283227,-9743.573627
12714.558650,497.707101,57.427742,-10202.995566
12714.561204,-19.142581,306.281293,-10107.282662
12714.563758,-153.140646,-1703.689691,-9437.292334
12714.566312,76.570323,-497.707101,-10049.854920
12714.568866,535.992262,-19.142581,-10202.995566
12714.571420,-708.275490,-1014.556782,-9571.290400
12714.573975,210.568389,-823.130974,-9781.858789
12714.576529,-918.843878,976.271621,-10279.565890
12714.579083,1301.695494,-1895.115499,-9628.718142
12714.581637,-1320.838075,2775.674216,-10528.419440
12714.584191,-3101.098090,-3369.094221,-8499.305875
12714.586745,267.996131,-172.283227,-9762.716208
12714.589299,-1378.265818,9781.858789,-12634.103328
12714.591853,-1703.689691,-14088.939469,-5072.783912
12714.594407,-1799.402595,12193.823970,-13686.945272
12714.596961,-0.000000,57.427742,-10298.708470
12714.599515,210.568389,-10049.854920,-6221.338760
12714.602070,-823.130974,14376.078181,-14548.361408
12714.604624,-2201.396792,-7350.751027,-7733.602643
12714.607178,-1550.549045,-153.140646,-9054.440718
12714.609732,708.275490,6738.188442,-12442.677520
12714.612286,-957.129040,-4441.078746,-8384.450390
12714.614840,-306.281293,1856.830338,-9073.583299
12714.617394,-765.703232,2124.826469,-10604.989763
12714.619948,-1550.549045,-1091.127106,-9360.722011
12714.622502,-1225.125171,1990.828403,-10145.567824
12714.625056,-19.142581,535.992262,-9973.284597
12714.627610,-1607.976787,516.849682,-9628.718142
12714.630165,-325.423874,1512.263883,-10279.565890
12714.632719,-1110.269686,995.414202,-10107.282662
12714.635273,-19.142581,-210.568389,-9686.145885
12714.637827,-2182.254211,267.996131,-9915.856854
12714.640381,1052.841944,574.277424,-10183.852986
12714.642935,-1952.543242,2392.822600,-10241.280728
12714.645490,76.570323,-8461.020714,-7408.178770
12714.648044,1914.258080,4345.365842,-11581.261384
12714.650598,19.142581,6278.766502,-12174.681389
12714.653152,-287.138712,-16290.336261,-4460.221326
12714.655706,-937.986459,14280.365277,-14701.502054
12714.658260,-957.129040,-5015.356170,-8595.018779
12714.660814,918.843878,-7523.034254,-7063.612315
12714.663369,1225.125171,11849.257515,-14280.365277
12714.665923,612.562586,-8365.307810,-7465.606512
12714.668477,-1129.412267,1588.834206,-9724.431046
12714.671031,-555.134843,2048.256146,-10987.841379
12714.673585,-593.420005,-2469.392923,-9035.298138
12714.676139,708.275490,1703.689691,-10298.708470
12714.678693,535.992262,-478.564520,-9839.286531
12714.681248,-38.285162,-1416.550979,-9762.716208
12714.683802,-57.427742,1071.984525,-10470.991698
12714.686356,401.994197,-1952.543242,-9609.575562
12714.688910,-823.130974,-1684.547110,-9418.149754
12714.691464,-19.142581,1397.408398,-10451.849117
12714.694018,-401.994197,-1110.269686,-9647.860723
12714.696573,784.845813,-497.707101,-9743.573627
12714.699127,-918.843878,38.285162,-10049.854920
12714.701681,1703.689691,344.566454,-10202.995566
12714.704235,-1780.260014,4077.369710,-10681.560086
12714.706789,-1799.402595,-9379.864592,-6872.186507
12714.709343,-823.130974,13897.513661,-14127.224630
12714.711897,363.709035,9245.866526,-13036.097525
12714.714452,114.855485,-15141.781413,-4383.651003
12714.717006,-803.988394,13150.953010,-13974.083984
12714.719560,-1493.121302,-2526.820666,-9418.149754
12714.722114,-2488.535504,-7121.040058,-6642.475538
12714.724668,-229.710970,11791.829773,-13667.802691
12714.727222,-516.849682,-6278.766502,-7925.028451
12714.729776,-344.566454,1225.125171,-9475.577496
12714.732331,-363.709035,2833.101958,-11313.265253
12714.734885,-995.414202,-2335.394858,-9245.866526
12714.737440,-708.275490,1895.115499,-9992.427178
12714.739994,-1512.263883,-210.568389,-9781.858789
12714.742548,-1129.412267,-114.855485,-9647.860723
12714.745103,-1473.978722,2411.965181,-10298.708470
12714.747657,459.421939,-153.140646,-9762.716208
12714.750212,-516.849682,918.843878,-9992.427178
12714.752766,-650.847747,1378.265818,-10279.565890
12714.755320,-2450.250342,-1837.687757,-9111.868461
12714.757875,899.701298,2545.963246,-10777.272990
12714.760429,-1971.685822,650.847747,-9896.714274
12714.762984,631.705166,-6833.901346,-7944.171032
12714.765538,1761.117434,12614.960747,-14165.509792
12714.768093,-478.564520,-12729.816232,-5895.914886
12714.770647,-440.279358,2354.537438,-10490.134278
12714.773201,-612.562586,8882.157491,-15524.633029
12714.775756,-516.849682,-10758.130410,-6661.618118
12714.778310,1167.697429,-1014.556782,-9073.583299
12714.780865,1435.693560,9092.725880,-13725.230434
12714.783419,325.423874,-10509.276859,-6604.190376
12714.785973,-1282.552914,5053.641331,-11006.983960
12714.788528,-727.418070,-19.142581,-10451.849117
12714.791082,-325.423874,-1607.976787,-9131.011042
12714.793637,344.566454,1110.269686,-10107.282662
12714.796191,-57.427742,-1359.123237,-9896.714274
12714.798745,440.279358,1378.265818,-10509.276859
12714.801300,593.420005,-1416.550979,-9724.431046
12714.803854,612.562586,-2105.683888,-9609.575562
12714.806409,-612.562586,1473.978722,-10432.706536
12714.808963,-287.138712,-957.129040,-9647.860723
12714.811517,-957.129040,-1588.834206,-9303.294269
12714.814072,1818.545176,1665.404530,-10719.845248
12714.816626,-1569.691626,-1148.554848,-9456.434915
12714.819181,535.992262,-3196.810994,-9054.440718
12714.821735,-555.134843,10777.272990,-13170.095590
12714.824289,-3196.810994,-11198.409768,-5915.057467
12714.826844,-1014.556782,6489.334891,-11562.118803
12714.829398,459.421939,7637.889739,-12576.675586
12714.831953,-421.136778,-14414.363342,-4498.506488
12714.834507,-708.275490,13514.662045,-14261.222696
12714.837061,-1244.267752,8843.872330,-13208.380752
12714.839616,-2718.246474,-11102.696864,-5800.201982
12714.842170,-574.277424,8269.594906,-11964.113000
12714.844724,689.132909,19.142581,-10394.421374
12714.847279,-899.701298,-2335.394858,-8575.876198
12714.849833,-421.136778,1665.404530,-10470.991698
12714.852388,-1627.119368,-1071.984525,-9801.001370
12714.854942,-765.703232,2297.109696,-10145.567824
12714.857496,-918.843878,-823.130974,-9418.149754
12714.860051,-1550.549045,803.988394,-9896.714274
12714.862605,-880.558717,3656.232933,-10681.560086
12714.865160,-210.568389,-2718.246474,-8882.157491
12714.867714,-823.130974,2373.680019,-10451.849117
12714.870268,-516.849682,2603.390989,-10815.558152
12714.872823,-2469.392923,76.570323,-9456.434915
12714.875377,-1091.127106,-4728.217458,-8288.737486
12714.877931,2660.818731,8575.876198,-12997.812363
12714.880486,-1397.408398,-6049.055533,-7925.028451
12714.883040,1167.697429,-4402.793584,-8614.161360
12714.885595,459.421939,14586.646570,-14931.213024
12714.888149,76.570323,-17228.322720,-4249.652938
12714.890703,-803.988394,7025.327154,-12002.398162
12714.893258,-727.418070,5245.067139,-12098.111066
12714.895812,918.843878,-13820.943338,-5187.639397
12714.898366,1033.699363,10662.417506,-13648.660110
12714.900921,95.712904,5245.067139,-12327.822035
12714.903475,-153.140646,-5627.918755,-7848.458128
12714.906030,-363.709035,1856.830338,-10068.997501
12714.908584,-957.129040,-689.132909,-10049.854920
12714.911138,650.847747,1263.410333,-10145.567824
12714.913693,1416.550979,-382.851616,-9915.856854
12714.916247,229.710970,-3120.240670,-9188.438784
12714.918802,95.712904,1607.976787,-10777.272990
12714.921356,-1091.127106,-2297.109696,-9284.151688
12714.923910,-133.998066,-1856.830338,-9131.011042
12714.926465,612.562586,3196.810994,-11198.409768
12714.929019,95.712904,-2124.826469,-9207.581365
12714.931573,287.138712,-2469.392923,-9245.866526
12714.934128,1952.543242,3101.098090,-11217.552349
12714.936682,-1607.976787,4938.785846,-11179.267187
12714.939237,-2756.531635,-11810.972354,-5627.918755
12714.941791,-976.271621,15065.211090,-14529.218827
12714.944346,-516.849682,-3847.658741,-8614.161360
12714.946900,-746.560651,-7484.749093,-6680.760699
12714.949455,-153.140646,15141.781413,-15275.779478
12714.952009,-1129.412267,-11887.542677,-6163.911018
12714.954564,-2009.970984,3024.527766,-9915.856854
12714.957118,-574.277424,7274.180704,-12557.533005
12714.959673,-1703.689691,-7044.469734,-7216.752962
12714.962227,459.421939,4632.504554,-10949.556218
12714.964782,19.142581,2507.678085,-11006.983960
12714.967336,-1186.840010,-1531.406464,-9590.432981
12714.969891,-1148.554848,1110.269686,-9801.001370
12714.972445,-1320.838075,421.136778,-9839.286531
12714.975000,-1569.691626,1550.549045,-9839.286531
12714.977555,-421.136778,1282.552914,-10011.569758
12714.980109,-19.142581,-382.851616,-9762.716208
12714.982664,-1148.554848,1722.832272,-10145.567824
12714.985218,-497.707101,-306.281293,-9724.431046
12714.987773,-2928.814862,1205.982590,-9858.429112
12714.990327,-382.851616,-3158.525832,-8920.442653
12714.992882,1454.836141,7159.325219,-12232.109131
12714.995436,-784.845813,-7733.602643,-7523.034254
12714.997991,574.277424,-11274.980091,-6527.620053
12715.000545,38.285162,15122.638832,-15084.353670
12715.003100,191.425808,-11332.407834,-6431.907149
12715.005654,-803.988394,-1493.121302,-8863.014910
12715.008209,-631.705166,10796.415571,-13706.087853
12715.010763,650.847747,-13399.806560,-5608.776174
12715.013318,899.701298,5953.342629,-11619.546546
12715.015872,114.855485,229.710970,-10834.700733
12715.018427,-689.132909,-4039.084549,-7963.313613
12715.020981,57.427742,3005.385186,-10738.987829
12715.023536,-440.279358,-1512.263883,-9667.003304
12715.026090,746.560651,823.130974,-10068.997501
12715.028645,995.414202,803.988394,-10432.706536
12715.031199,1091.127106,-2182.254211,-9705.288466
12715.033754,287.138712,-746.560651,-10088.140082
12715.036308,-918.843878,267.996131,-10068.997501
12715.038863,-95.712904,-1646.261949,-9303.294269
12715.041417,-382.851616,459.421939,-10088.140082
12715.043971,1684.547110,19.142581,-10145.567824
12715.046525,-1493.121302,-976.271621,-9456.434915
12715.049080,746.560651,-2526.820666,-9437.292334
12715.051634,-689.132909,9245.866526,-12634.103328
12715.054188,-3388.236802,-9762.716208,-6374.479406
12715.056743,-1071.984525,5704.489078,-11351.550414
12715.059297,-459.421939,16213.765938,-15103.496251
12715.061851,172.283227,-11408.978157,-6221.338760
12715.064406,-344.566454,1129.412267,-9858.429112
12715.066960,-1091.127106,8231.309744,-13016.954944
12715.069514,-2565.105827,-9513.862658,-6202.196179
12715.072068,-459.421939,7101.897477,-11523.833642
12715.074623,727.418070,210.568389,-10490.134278
12715.077177,-306.281293,-1129.412267,-9150.153622
12715.079731,-306.281293,1186.840010,-10222.138147
12715.082286,-2067.398726,-1875.972918,-9494.720077
12715.084840,-1091.127106,2737.389054,-10298.708470
12715.087394,-957.129040,325.423874,-9781.858789
12715.089948,-1435.693560,248.853550,-9379.864592
12715.092503,57.427742,861.416136,-10030.712339
12715.095057,-784.845813,2239.681954,-10585.847182
12715.097611,-114.855485,-1014.556782,-9494.720077
12715.100166,-2852.244539,-76.570323,-9533.005238
12715.102720,1091.127106,1646.261949,-10547.562021
12715.105274,-2469.392923,2201.396792,-9954.142016
12715.107829,1033.699363,-9092.725880,-7159.325219
12715.110383,2488.535504,12519.247843,-14376.078181
12715.112937,-76.570323,-8384.450390,-7389.036189
12715.115491,-1416.550979,-5225.924558,-8020.741355
12715.118046,-210.568389,14299.507858,-15180.066574
12715.120600,-459.421939,-14720.644635,-4957.928427
12715.123154,1263.410333,-8078.169098,-6661.618118
12715.125709,1435.693560,11830.114934,-14510.076246
12715.128263,612.562586,-8135.596840,-7944.171032
12715.130817,-842.273555,114.855485,-9150.153622
12715.133371,-1569.691626,2354.537438,-10968.698798
12715.135926,-440.279358,-1703.689691,-9284.151688
12715.138480,1416.550979,2469.392923,-10566.704602
12715.141034,555.134843,-2756.531635,-9303.294269
12715.143588,-229.710970,-1033.699363,-9724.431046
12715.146141,631.705166,1167.697429,-10815.558152
12715.148695,-1416.550979,-3905.086483,-8805.587168
12715.151249,-287.138712,-248.853550,-9724.431046
12715.153803,-555.134843,2813.959378,-11006.983960
12715.156356,1780.260014,-669.990328,-9934.999435
12715.158910,-1435.693560,-2450.250342,-8958.727814
12715.161464,1033.699363,-421.136778,-10298.708470
12715.164018,-1110.269686,8269.594906,-12366.107197
12715.166572,-3369.094221,-10375.278794,-6068.198114
12715.169125,-1110.269686,7101.897477,-11791.829773
12715.171679,669.990328,7216.752962,-12270.394293
12715.174233,-401.994197,-13648.660110,-4709.074877
12715.176787,-880.558717,12442.677520,-14127.224630
12715.179340,-1741.974853,-3579.662610,-9360.722011
12715.181894,-2450.250342,-5800.201982,-6891.329088
12715.184448,-631.705166,10528.419440,-13150.953010
12715.187002,612.562586,1627.119368,-10853.843314
12715.189555,-1129.412267,-3158.525832,-8231.309744
12715.192109,-497.707101,899.701298,-10202.995566
12715.194663,-1722.832272,555.134843,-10279.565890
12715.197217,-1052.841944,1435.693560,-9992.427178
12715.199771,-1320.838075,-823.130974,-9207.581365
12715.202324,-669.990328,3139.383251,-10451.849117
12715.204878,306.281293,1627.119368,-10183.852986
12715.207432,-842.273555,-2258.824534,-9111.868461
12715.209986,325.423874,3311.666478,-11121.839445
12715.212539,-3139.383251,-880.558717,-9418.149754
12715.215093,497.707101,-1454.836141,-9188.438784
12715.217647,689.132909,6451.049730,-12423.534939
12715.220201,95.712904,-7523.034254,-7618.747158
12715.222754,1952.543242,325.423874,-10279.565890
12715.225308,172.283227,8595.018779,-12940.384621
12715.227862,-669.990328,-16118.053034,-4747.360038
12715.230416,-555.134843,12155.538808,-13897.513661
12715.232970,-172.283227,-2392.822600,-9379.864592
12715.235523,1167.697429,-7446.463931,-6910.471669
12715.238077,1110.269686,11217.552349,-14146.367211
12715.240631,-19.142581,-8901.300072,-7714.460062
12715.243184,-1129.412267,1014.556782,-9590.432981
12715.245738,-784.845813,2565.105827,-10872.985894
12715.248292,-287.138712,-2182.254211,-9054.440718
12715.250845,1148.554848,995.414202,-10049.854920
12715.253399,1148.554848,-669.990328,-9992.427178
12715.255953,612.562586,-1971.685822,-9667.003304
12715.258506,-650.847747,-172.283227,-10183.852986
12715.261060,-708.275490,-1225.125171,-9801.001370
12715.263614,689.132909,401.994197,-10049.854920
12715.266167,-382.851616,0.000000,-9762.716208
12715.268721,1741.974853,-1359.123237,-9762.716208
12715.271275,-133.998066,3847.658741,-11160.124606
12715.273828,-3005.385186,-7369.893608,-7369.893608
12715.276382,-650.847747,6565.905214,-11925.827838
12715.278936,-1703.689691,3043.670347,-10528.419440
12715.281489,-1225.125171,-13629.517530,-4862.215523
12715.284043,-1339.980656,7714.460062,-11830.114934
12715.286597,421.136778,5915.057467,-12423.534939
12715.289150,287.138712,-12940.384621,-5513.063270
12715.291704,-1282.552914,11542.976222,-13495.519464
12715.294258,-1110.269686,-2182.254211,-9437.292334
12715.296811,-2048.256146,-2756.531635,-7848.458128
12715.299365,76.570323,5838.487144,-11868.400096
12715.301919,-1263.410333,-3120.240670,-9150.153622
12715.304472,57.427742,1435.693560,-10107.282662
12715.307026,-1320.838075,555.134843,-10068.997501
12715.309580,-2182.254211,-957.129040,-9303.294269
12715.312133,-1952.543242,3541.377448,-10126.425243
12715.314687,765.703232,1301.695494,-10068.997501
12715.317241,-612.562586,-172.283227,-9609.575562
12715.319794,-325.423874,1627.119368,-10432.706536
12715.322348,-2890.529701,-1320.838075,-9418.149754
12715.324902,593.420005,2029.113565,-10451.849117
12715.327455,-2852.244539,708.275490,-9571.290400
12715.330009,1531.406464,-5819.344563,-8212.167163
12715.332563,1952.543242,12251.251712,-13993.226565
12715.335116,-172.283227,-14337.793019,-5627.918755
12715.337670,-957.129040,3713.660675,-11083.554283
12715.340223,-57.427742,7695.317482,-13170.095590
12715.342777,-593.420005,-16118.053034,-4307.080680
12715.345330,1129.412267,478.564520,-9322.436850
12715.347884,1301.695494,9265.009107,-13801.800757
12715.350437,229.710970,-11523.833642,-6336.194245
12715.352990,-899.701298,4747.360038,-11255.837510
12715.355543,-1837.687757,95.712904,-10509.276859
12715.358096,19.142581,-2086.541307,-8767.302006
12715.360650,1014.556782,3158.525832,-10777.272990
12715.363203,535.992262,-3005.385186,-9265.009107
12715.365756,325.423874,-287.138712,-9877.571693
12715.368309,153.140646,-325.423874,-10356.136213
12715.370863,-1052.841944,-1780.260014,-9533.005238
12715.373416,-0.000000,-114.855485,-10011.569758
12715.375969,-382.851616,765.703232,-9992.427178
12715.378522,1588.834206,-1454.836141,-9705.288466
12715.381075,516.849682,4000.799387,-11160.124606
12715.383629,-3713.660675,-6240.481341,-7733.602643
12715.386182,-803.988394,3349.951640,-10911.271056
12715.388735,-1378.265818,6929.614250,-11849.257515
12715.391288,-1225.125171,-13150.953010,-4957.928427
12715.393842,-612.562586,15275.779478,-14471.791085
12715.396395,38.285162,-3885.943902,-8805.587168
12715.398948,172.283227,-7121.040058,-7216.752962
12715.401501,-1148.554848,12595.818166,-14376.078181
12715.404054,-2163.111630,-8767.302006,-6910.471669
12715.406608,-2392.822600,2469.392923,-7159.325219
12715.409161,-114.855485,6106.483275,-11696.116869
12715.411714,-497.707101,-1588.834206,-9781.858789
12715.414267,19.142581,823.130974,-9915.856854
12715.416821,-1837.687757,-631.705166,-9513.862658
12715.419374,-2258.824534,593.420005,-9896.714274
12715.421927,-1473.978722,3924.229064,-10528.419440
12715.424480,248.853550,-3158.525832,-8499.305875
12715.427033,-440.279358,3637.090352,-10834.700733
12715.429587,-287.138712,1588.834206,-10451.849117
12715.432140,-2986.242605,-4441.078746,-8250.452325
12715.434693,555.134843,4517.649069,-11581.261384
12715.437246,-2048.256146,1550.549045,-9973.284597
12715.439799,-555.134843,-11619.546546,-5953.342629
12715.442353,2201.396792,5953.342629,-11983.255581
12715.444906,-114.855485,5091.926493,-12193.823970
12715.447459,-861.416136,-16424.334326,-4498.506488
12715.450011,-555.134843,14318.650438,-15007.783347
12715.452564,-459.421939,-5034.498750,-8614.161360
12715.455116,899.701298,-6010.770371,-7063.612315
12715.457669,1167.697429,10987.841379,-14069.796888
12715.460222,478.564520,-8078.169098,-7886.743290
12715.462774,-669.990328,746.560651,-9762.716208
12715.465327,-1205.982590,1531.406464,-10853.843314
12715.467879,-899.701298,-2220.539373,-8958.727814
12715.470432,842.273555,765.703232,-10049.854920
12715.472985,1416.550979,19.142581,-10298.708470
12715.475537,1148.554848,-2852.244539,-9418.149754
12715.478090,-1569.691626,612.562586,-10317.851051
12715.480642,-918.843878,-2124.826469,-9437.292334
12715.483195,-229.710970,-38.285162,-9858.429112
12715.485748,1301.695494,1493.121302,-10279.565890
12715.488300,-765.703232,-3024.527766,-8843.872330
12715.490853,2067.398726,2584.248408,-11064.411702
12715.493406,-2316.252277,3215.953574,-10624.132344
12715.495958,-2335.394858,-10356.136213,-6470.192310
12715.498511,-1244.267752,15582.060771,-14663.216893
12715.501063,-114.855485,-6604.190376,-7465.606512
12715.503616,-631.705166,-14414.363342,-4364.508422
12715.506169,-784.845813,12959.527202,-14299.507858
12715.508721,-2009.970984,-3522.234867,-9533.005238
12715.511274,-2143.969050,-6565.905214,-6910.471669
12715.513826,-421.136778,10872.985894,-13399.806560
12715.516379,-363.709035,-4728.217458,-8231.309744
12715.518932,57.427742,746.560651,-9379.864592
12715.521484,-497.707101,2239.681954,-11083.554283
12715.524037,-1435.693560,-1818.545176,-9360.722011
12715.526589,-1627.119368,1761.117434,-10011.569758
12715.529142,-1473.978722,650.847747,-9915.856854
12715.531695,-325.423874,1378.265818,-9915.856854
12715.534247,-114.855485,2124.826469,-10241.280728
12715.536800,-306.281293,-76.570323,-9762.716208
12715.539353,-2258.824534,-363.709035,-9762.716208
12715.541905,421.136778,2124.826469,-10643.274925
12715.544458,-2928.814862,-861.416136,-9360.722011
12715.547010,1780.260014,-4096.512291,-8633.303941
12715.549562,1875.972918,11255.837510,-13552.947206
12715.552114,133.998066,-14337.793019,-5474.778109
12715.554667,-995.414202,5091.926493,-11600.403965
12715.557219,-401.994197,5819.344563,-12538.390424
12715.559771,-306.281293,-15141.781413,-4728.217458
12715.562324,363.709035,13323.236237,-14069.796888
12715.564876,574.277424,-3751.945837,-9150.153622
12715.567428,229.710970,-11045.269122,-6374.479406
12715.569980,-1071.984525,4785.645200,-11389.835576
12715.572533,-1397.408398,-516.849682,-10547.562021
12715.575085,631.705166,-669.990328,-9360.722011
12715.577637,631.705166,1761.117434,-10317.851051
12715.580189,842.273555,-3273.381317,-9226.723946
12715.582742,765.703232,2009.970984,-10815.558152
12715.585294,-1071.984525,-2545.963246,-9322.436850
12715.587846,-1205.982590,-2852.244539,-9073.583299
12715.590399,76.570323,3790.230998,-11466.405899
12715.592951,746.560651,-2775.674216,-8901.300072
12715.595503,459.421939,-1914.258080,-9245.866526
12715.598055,2086.541307,2871.387120,-11274.980091
12715.600608,-1818.545176,5819.344563,-11657.831707
12715.603160,-3388.236802,-12232.109131,-5589.633594
12715.605712,-1378.265818,13208.380752,-13897.513661
12715.608265,574.277424,-325.423874,-9686.145885
12715.610817,-727.418070,-9188.438784,-6010.770371
12715.613369,-306.281293,14720.644635,-15084.353670
12715.615921,-1856.830338,-9131.011042,-7369.893608
12715.618474,-1550.549045,-669.990328,-9016.155557
12715.621026,-555.134843,8614.161360,-13074.382686
12715.623578,-1301.695494,-6029.912952,-7389.036189
12715.626130,-57.427742,2928.814862,-10107.282662
12715.628683,-363.709035,1225.125171,-10872.985894
12715.631235,-1627.119368,-612.562586,-9839.286531
12715.633787,-2067.398726,1129.412267,-9762.716208
12715.636340,-937.986459,535.992262,-9801.001370
12715.638892,95.712904,1856.830338,-10241.280728
12715.641444,-210.568389,976.271621,-9820.143950
12715.643996,-114.855485,210.568389,-9705.288466
12715.646549,-2316.252277,1033.699363,-10317.851051
12715.649101,478.564520,-76.570323,-10030.712339
12715.651653,-3062.812928,1741.974853,-9915.856854
12715.654204,1646.261949,-6585.047795,-7982.456194
12715.656756,2526.820666,11638.689126,-13706.087853
12715.659308,229.710970,-11408.978157,-6393.621987
12715.661860,-1071.984525,-13993.226565,-5398.207786
12715.664411,-478.564520,15486.347867,-15562.918190
12715.666963,-459.421939,-8403.592971,-7369.893608
12715.669515,1473.978722,-3043.670347,-8173.882002
12715.672067,1550.549045,11389.835576,-14261.222696
12715.674618,382.851616,-10509.276859,-6776.473603
12715.677170,-1493.121302,2335.394858,-10260.423309
12715.679722,-2009.970984,631.705166,-10719.845248
12715.682274,669.990328,-1014.556782,-9341.579430
12715.684825,1703.689691,2545.963246,-10585.847182
12715.687377,1167.697429,-4211.367776,-8939.585234
12715.689929,-57.427742,1454.836141,-10662.417506
12715.692481,-803.988394,3503.092286,-11294.122672
12715.695032,-114.855485,-4249.652938,-8843.872330
12715.697584,-382.851616,306.281293,-9896.714274
12715.700136,1933.400661,1684.547110,-10930.413637
12715.702688,-650.847747,-421.136778,-9475.577496
12715.705239,-2124.826469,-5015.356170,-8173.882002
12715.707791,-267.996131,9494.720077,-12997.812363
12715.710343,-2833.101958,-3885.943902,-8212.167163
12715.712894,-861.416136,-5111.069074,-7848.458128
12715.715446,210.568389,15945.769806,-14835.500120
12715.717998,-0.000000,-12212.966550,-5379.065205
12715.720550,-803.988394,3024.527766,-10336.993632
12715.723101,-1263.410333,6642.475538,-12863.814298
12715.725653,-1895.115499,-5915.057467,-8154.739421
12715.728205,-1473.978722,-344.566454,-8824.729749
12715.730757,382.851616,5819.344563,-11906.685258
12715.733308,-957.129040,-2507.678085,-9092.725880
12715.735860,-535.992262,918.843878,-9934.999435
12715.738412,-2258.824534,95.712904,-10049.854920
12715.740964,-2163.111630,1799.402595,-10145.567824
12715.743515,-440.279358,325.423874,-9609.575562
12715.746067,133.998066,287.138712,-9762.716208
12715.748619,-727.418070,3024.527766,-10528.419440
12715.751171,-1263.410333,-2737.389054,-8939.585234
12715.753705,-1952.543242,3388.236802,-10662.417506
12715.756239,-2756.531635,114.855485,-9858.429112
12715.758774,2297.109696,-3464.807125,-9092.725880
12715.761308,516.849682,9226.723946,-12672.388490
12715.763842,306.281293,-14299.507858,-5436.492947
12715.766377,-631.705166,8748.159426,-12863.814298
12715.768911,-114.855485,784.845813,-10758.130410
12715.771445,-555.134843,-12978.669782,-5474.778109
12715.773980,-363.709035,14701.502054,-14835.500120
12715.776514,459.421939,-7848.458128,-7503.891674
12715.779048,95.712904,-2909.672282,-8288.737486
12715.781583,325.423874,7369.893608,-13131.810429
12715.784117,-478.564520,-5934.200048,-8288.737486
12715.786652,287.138712,727.418070,-8901.300072
12715.789186,153.140646,765.703232,-10107.282662
12715.791720,918.843878,-612.562586,-10164.710405
12715.794255,95.712904,-631.705166,-9839.286531
12715.796789,-287.138712,-2143.969050,-9513.862658
12715.799323,-210.568389,765.703232,-10470.991698
12715.801858,-1320.838075,-1799.402595,-9322.436850
12715.804392,1914.258080,-784.845813,-9801.001370
12715.806926,-593.420005,2201.396792,-10451.849117
12715.809461,1244.267752,-5225.924558,-8422.735552
12715.811995,-1167.697429,10719.845248,-13036.097525
12715.814529,-3598.805190,-9456.434915,-6661.618118
12715.817064,-995.414202,4364.508422,-6604.190376
12715.819598,-95.712904,16711.473038,-14912.070443
12715.822132,363.709035,-10356.136213,-6297.909083
12715.824667,-861.416136,401.994197,-9437.292334
12715.827201,-957.129040,8461.020714,-13323.236237
12715.829735,-2928.814862,-10490.134278,-6221.338760
12715.832270,-937.986459,6470.192310,-11140.982026
12715.834804,746.560651,1473.978722,-10643.274925
12715.837338,-191.425808,-2124.826469,-8690.731683
12715.839873,-555.134843,2833.101958,-10777.272990
12715.842407,-2086.541307,-1646.261949,-9418.149754
12715.844941,-1933.400661,2603.390989,-10145.567824
12715.847476,153.140646,401.994197,-9801.001370
12715.850010,-114.855485,-382.851616,-9533.005238
12715.852545,-440.279358,2258.824534,-10222.138147
12715.855081,-2048.256146,-1129.412267,-9513.862658
12715.857617,-19.142581,1875.972918,-10490.134278
12715.860154,-2967.100024,-535.992262,-9494.720077
12715.862690,1703.689691,-3905.086483,-8977.870395
12715.865226,1129.412267,10030.712339,-12997.812363
12715.867763,421.136778,-14261.222696,-5513.063270
12715.870299,-957.129040,7197.610381,-12232.109131
12715.872835,-95.712904,2603.390989,-11581.261384
12715.875372,-650.847747,-13304.093656,-5321.637462
12715.877908,-229.710970,13170.095590,-14146.367211
12715.880444,1129.412267,-5264.209720,-12500.105262
12715.882981,172.283227,-9954.142016,-6585.047795
12715.885517,-784.845813,5130.211654,-11562.118803
12715.888053,-918.843878,-95.712904,-10815.558152
12715.890590,516.849682,-1397.408398,-9054.440718
12715.893126,689.132909,0.000000,-9934.999435
12715.895662,1167.697429,-421.136778,-10183.852986
12715.898199,-363.709035,-133.998066,-9915.856854
12715.900735,-401.994197,-2909.672282,-9188.438784
12715.903271,210.568389,1244.267752,-10719.845248
12715.905808,-880.558717,-574.277424,-9705.288466
12715.908344,2086.541307,-3024.527766,-9207.581365
12715.910880,191.425808,5876.772306,-11619.546546
12715.913417,-3273.381317,-2354.537438,-8805.587168
12715.915953,-823.130974,-3158.525832,-8824.729749
12715.918489,-1741.974853,13016.954944,-13820.943338
12715.921026,-1244.267752,-14146.367211,-4900.500685
12715.923562,-1205.982590,9954.142016,-12538.390424
12715.926098,555.134843,3483.949706,-11332.407834
12715.928635,-114.855485,-10719.845248,-5953.342629
12715.931171,-1014.556782,10911.271056,-13648.660110
12715.933708,-1665.404530,-3809.373579,-8958.727814
12715.936245,-1741.974853,-1741.974853,-8307.880067
12715.938783,-287.138712,5321.637462,-11657.831707
12715.941321,-1320.838075,-2794.816797,-8997.012976
12715.943859,-1741.974853,-114.855485,-9609.575562
12715.946396,-1607.976787,2239.681954,-10279.565890
12715.948934,-1033.699363,-210.568389,-9628.718142
12715.951472,-784.845813,1473.978722,-10030.712339
12715.954010,-650.847747,937.986459,-9992.427178
12715.956547,-210.568389,287.138712,-9915.856854
12715.959085,-2947.957443,1837.687757,-10049.854920
12715.961623,-746.560651,-3617.947771,-8920.442653
12715.964161,593.420005,7255.038123,-12155.538808
12715.966698,-229.710970,-8288.737486,-7255.038123
12715.969236,1837.687757,1818.545176,-10604.989763
12715.971774,861.416136,7465.606512,-12672.388490
12715.974312,-612.562586,-15926.627226,-4747.360038
12715.976850,-823.130974,-1014.556782,-9207.581365
12715.979387,-708.275490,10509.276859,-13744.373014
12715.981925,114.855485,-12538.390424,-5493.920690
12715.984463,976.271621,6546.762634,-11715.259450
12715.987001,689.132909,1320.838075,-11179.267187
12715.989538,-516.849682,-6336.194245,-7408.178770
12715.992076,-631.705166,2833.101958,-10719.845248
12715.994614,-229.710970,-803.988394,-9992.427178
12715.997152,1225.125171,-440.279358,-9609.575562
12715.999689,899.701298,-2048.256146,-9571.290400
12716.002227,-172.283227,1052.841944,-10528.419440
12716.004765,-267.996131,-440.279358,-9954.142016
12716.007303,-1320.838075,-3196.810994,-8863.014910
12716.009840,2163.111630,-574.277424,-10088.140082
12716.012378,-153.140646,4919.643266,-11466.405899
12716.014916,-1646.261949,-9303.294269,-6527.620053
12716.017454,-650.847747,10815.558152,-13074.382686
12716.019992,-2679.961312,-1990.828403,-9073.583299
12716.022529,-1167.697429,-7408.178770,-7006.184573
12716.025067,172.283227,16807.185942,-15160.923994
12716.027605,38.285162,-12251.251712,-5647.061336
12716.030143,-1091.127106,2967.100024,-10279.565890
12716.032680,-918.843878,6833.901346,-12825.529136
12716.035218,-2813.959378,-10394.421374,-6125.625856
12716.037757,-2067.398726,-631.705166,-8652.446522
12716.040297,842.273555,5991.627790,-12117.253646
12716.042836,-421.136778,-1512.263883,-9379.864592
12716.045376,-708.275490,-325.423874,-9265.009107
12716.047915,-2029.113565,1588.834206,-10490.134278
12716.050454,-1014.556782,2335.394858,-10451.849117
12716.052994,-421.136778,-1971.685822,-8863.014910
12716.055533,-976.271621,2067.398726,-10375.278794
12716.058073,287.138712,2488.535504,-10681.560086
12716.060612,-2986.242605,-1761.117434,-8977.870395
12716.063151,229.710970,-421.136778,-9992.427178
12716.065691,-612.562586,6872.186507,-12078.968485
12716.068230,-57.427742,-11523.833642,-8173.882002
12716.070769,1205.982590,-5302.494882,-8307.880067
12716.073309,1301.695494,13782.658176,-14854.642701
12716.075848,-363.709035,-15926.627226,-4823.930362
12716.078388,-823.130974,4996.213589,-11485.548480
12716.080927,-555.134843,6125.625856,-12442.677520
12716.083466,612.562586,-11964.113000,-5398.207786
12716.086006,1378.265818,9743.573627,-13055.240106
12716.088545,516.849682,-2067.398726,-9973.284597
12716.091084,-574.277424,-5436.492947,-7503.891674
12716.093624,-497.707101,4000.799387,-11504.691061
12716.096163,-153.140646,-1952.543242,-9705.288466
12716.098703,1263.410333,-803.988394,-9437.292334
12716.101242,133.998066,-478.564520,-9839.286531
12716.103781,-191.425808,-861.416136,-10011.569758
12716.106321,57.427742,210.568389,-10356.136213
12716.108860,-727.418070,-1129.412267,-9571.290400
12716.111399,1971.685822,-1684.547110,-9839.286531
12716.113939,191.425808,4957.928427,-11428.120738
12716.116478,-2890.529701,-7733.602643,-6967.899411
12716.119018,-421.136778,6929.614250,-11830.114934
12716.121557,-1856.830338,3656.232933,-10930.413637
12716.124096,-1569.691626,-12155.538808,-5493.920690
12716.126636,-535.992262,16979.469170,-15314.064640
12716.129175,210.568389,-7446.463931,-7312.465866
12716.131714,-191.425808,-12595.818166,-5321.637462
12716.134254,-746.560651,10375.278794,-13323.236237
12716.136793,-1607.976787,-1780.260014,-9839.286531
12716.139334,-2545.963246,-4039.084549,-7542.176835
12716.141874,-114.855485,6355.336826,-11906.685258
12716.144415,-421.136778,-899.701298,-9820.143950
12716.146955,-918.843878,-306.281293,-9226.723946
12716.149496,-1550.549045,1301.695494,-10222.138147
12716.152036,-957.129040,2067.398726,-10298.708470
12716.154577,-459.421939,-1014.556782,-9226.723946
12716.157118,-803.988394,1684.547110,-10164.710405
12716.159658,-535.992262,823.130974,-9992.427178
12716.162199,-2067.398726,976.271621,-10432.706536
12716.164739,-3177.668413,-2622.533570,-8939.585234
12716.167280,1703.689691,-535.992262,-10107.282662
12716.169820,689.132909,7561.319416,-12232.109131
12716.172361,114.855485,-15352.349802,-4977.071008
12716.174901,-76.570323,10834.700733,-13591.232368
12716.177442,172.283227,-669.990328,-10336.993632
12716.179982,-880.558717,-12634.103328,-5455.635528
12716.182523,-421.136778,14586.646570,-14892.927862
12716.185063,-401.994197,-7618.747158,-7542.176835
12716.187604,650.847747,-3081.955509,-8078.169098
12716.190144,995.414202,8097.311678,-13208.380752
12716.192685,-535.992262,-7082.754896,-7733.602643
12716.195225,133.998066,-3043.670347,-8518.448456
12716.197766,727.418070,2048.256146,-10853.843314
12716.200307,516.849682,-1588.834206,-9858.429112
12716.202847,-229.710970,-689.132909,-9590.432981
12716.205388,650.847747,-459.421939,-10068.997501
12716.207928,-1091.127106,-1091.127106,-9801.001370
12716.210469,842.273555,-363.709035,-9877.571693
12716.213009,-1091.127106,-842.273555,-9667.003304
12716.215550,2603.390989,-612.562586,-9915.856854
12716.218090,-1569.691626,6699.903280,-11504.691061
12716.220631,-3043.670347,-10470.991698,-6297.909083
12716.223171,-1588.834206,12653.245909,-13744.373014
12716.225712,478.564520,12136.396227,-13878.371080
12716.228252,-267.996131,-14165.509792,-4555.934230
12716.230793,-1071.984525,8901.300072,-12500.105262
12716.233333,-1186.840010,1818.545176,-11198.409768
12716.235874,-2220.539373,-9245.866526,-6317.051664
12716.238415,-631.705166,9667.003304,-12902.099459
12716.240939,287.138712,-1895.115499,-9533.005238
12716.243464,-1014.556782,-1205.982590,-8614.161360
12716.245989,-708.275490,2220.539373,-10681.560086
12716.248513,-2048.256146,880.558717,-10107.282662
12716.251038,-784.845813,38.285162,-9437.292334
12716.253563,-650.847747,287.138712,-9992.427178
12716.256088,-1684.547110,2469.392923,-10298.708470
12716.258612,-440.279358,-1091.127106,-9303.294269
12716.261137,-1837.687757,2163.111630,-10068.997501
12716.263662,-899.701298,-2794.816797,-9150.153622
12716.266187,1512.263883,4402.793584,-11523.833642
12716.268711,-995.414202,-2297.109696,-9150.153622
12716.271236,899.701298,-6680.760699,-8039.883936
12716.273761,1454.836141,12959.527202,-14433.505923
12716.276286,19.142581,-13916.656242,-5551.348432
12716.278810,-574.277424,3005.385186,-10777.272990
12716.281335,-650.847747,7484.749093,-12748.958813
12716.283860,421.136778,-12251.251712,-5570.491013
12716.286384,1263.410333,9341.579430,-12863.814298
12716.288909,1110.269686,7063.612315,-12863.814298
12716.291434,-497.707101,-7637.889739,-7523.034254
12716.293959,38.285162,1684.547110,-10068.997501
12716.296483,191.425808,1167.697429,-10968.698798
12716.299008,555.134843,-3694.518094,-8690.731683
12716.301533,-172.283227,995.414202,-10222.138147
12716.304058,689.132909,153.140646,-10298.708470
12716.306582,-1052.841944,-2967.100024,-8939.585234
12716.309107,842.273555,995.414202,-10451.849117
12716.311632,-727.418070,-765.703232,-9839.286531
12716.314157,2335.394858,-1301.695494,-9552.147819
12716.316681,-2335.394858,5819.344563,-11160.124606
12716.319206,-2067.398726,-9054.440718,-7216.752962
12716.321731,-1282.552914,3905.086483,-10834.700733
12716.324256,516.849682,8288.737486,-12653.245909
12716.326780,-535.992262,-12748.958813,-5130.211654
12716.329305,-1282.552914,11179.267187,-13227.523333
12716.331830,-842.273555,-2009.970984,-9647.860723
12716.334354,-1761.117434,-6336.194245,-7255.038123
12716.336879,-210.568389,9418.149754,-12921.242040
12716.339404,-593.420005,-4039.084549,-8614.161360
12716.341932,-899.701298,669.990328,-9322.436850
12716.344460,-574.277424,2124.826469,-10777.272990
12716.346988,-1856.830338,-114.855485,-9609.575562
12716.349517,-803.988394,861.416136,-9762.716208
12716.352045,-612.562586,267.996131,-9877.571693
12716.354573,-1052.841944,2545.963246,-10451.849117
12716.357101,-937.986459,-1741.974853,-9092.725880
12716.359629,-976.271621,3120.240670,-10585.847182
12716.362157,-1531.406464,-2373.680019,-9207.581365
12716.364686,1627.119368,1454.836141,-10528.419440
12716.367214,-784.845813,2699.103893,-10738.987829
12716.369742,497.707101,-11332.407834,-6527.620053
12716.372270,976.271621,13189.238171,-14452.648504
12716.374798,191.425808,-9303.294269,-7140.182638
12716.377326,-669.990328,-3369.094221,-8499.305875
12716.379855,-727.418070,11332.407834,-13954.941403
12716.382383,-382.851616,-4173.082614,-8882.157491
12716.384911,727.418070,-4957.928427,-7791.030386
12716.387439,1091.127106,8614.161360,-13150.953010
12716.389967,-708.275490,-6317.051664,-8250.452325
12716.392495,344.566454,-574.277424,-9284.151688
12716.395024,631.705166,2794.816797,-11466.405899
12716.397552,-76.570323,-3847.658741,-8729.016845
12716.400080,-421.136778,-708.275490,-9475.577496
12716.402608,1014.556782,2297.109696,-11121.839445
12716.405136,-995.414202,-2967.100024,-8843.872330
12716.407664,1473.978722,-1952.543242,-9533.005238
12716.410193,-1148.554848,4249.652938,-11447.263318
12716.412721,-38.285162,-7101.897477,-7944.171032
12716.415249,95.712904,3196.810994,-10547.562021
12716.417777,-2009.970984,5761.916821,-11428.120738
12716.420305,-1493.121302,-10738.987829,-6087.340694
12716.422833,-746.560651,14395.220762,-14318.650438
12716.425362,191.425808,-6336.194245,-7810.172966
12716.427890,-880.558717,-2794.816797,-8365.307810
12716.430418,-746.560651,9150.153622,-13246.665914
12716.432946,-1990.828403,-8805.587168,-6948.756830
12716.435474,-765.703232,4364.508422,-10643.274925
12716.438002,172.283227,2469.392923,-11121.839445
12716.440531,-1550.549045,-2450.250342,-8729.016845
12716.443062,-669.990328,2775.674216,-10394.421374
12716.445592,-401.994197,1473.978722,-10356.136213
12716.448123,-823.130974,574.277424,-9858.429112
12716.450654,-1531.406464,363.709035,-9686.145885
12716.453185,306.281293,1895.115499,-10470.991698
12716.455716,-2431.107762,1071.984525,-9801.001370
12716.458247,708.275490,-2163.111630,-9322.436850
12716.460778,-1416.550979,6431.907149,-11772.687192
12716.463309,172.283227,-10336.993632,-6833.901346
12716.465839,2239.681954,8690.731683,-12978.669782
12716.468370,191.425808,-3158.525832,-9322.436850
12716.470901,-784.845813,-9475.577496,-6757.331022
12716.473432,114.855485,14165.509792,-15103.496251
12716.475963,19.142581,650.847747,-10585.847182
12716.478494,918.843878,-8748.159426,-6585.047795
12716.481025,803.988394,11064.411702,-13744.373014
12716.483556,-229.710970,-6431.907149,-8365.307810
12716.486087,-631.705166,-2163.111630,-8614.161360
12716.488617,497.707101,4613.361973,-11983.255581
12716.491148,210.568389,-3847.658741,-8863.014910
12716.493679,306.281293,-1359.123237,-9418.149754
12716.496210,210.568389,2565.105827,-11351.550414
12716.498741,191.425808,-2086.541307,-9207.581365
12716.501272,-478.564520,-2833.101958,-8920.442653
12716.503803,631.705166,3617.947771,-11466.405899
12716.506334,-1454.836141,-3828.516160,-10585.847182
12716.508864,669.990328,-6604.190376,-7810.172966
12716.511395,-803.988394,11906.685258,-13380.663979
12716.513926,-3081.955509,-8920.442653,-6661.618118
12716.516457,-1244.267752,4077.369710,-10777.272990
12716.518988,459.421939,9245.866526,-12959.527202
12716.521519,-689.132909,-13342.378818,-4977.071008
12716.524050,-1512.263883,11179.267187,-13112.667848
12716.526581,-803.988394,-1971.685822,-9705.288466
12716.529112,-1588.834206,-5532.205851,-7523.034254
12716.531642,-478.564520,8346.165229,-12614.960747
12716.534173,-861.416136,-4019.941968,-8671.589102
12716.536704,-995.414202,1301.695494,-9705.288466
12716.539235,-574.277424,2584.248408,-10451.849117
12716.541766,-708.275490,306.281293,-10011.569758
12716.544300,-1014.556782,1129.412267,-9762.716208
12716.546833,-1205.982590,-267.996131,-9628.718142
12716.549367,-325.423874,3139.383251,-10777.272990
12716.551901,-2009.970984,-937.986459,-9322.436850
12716.554434,746.560651,421.136778,-10011.569758
12716.556968,-2182.254211,4134.797453,-11006.983960
12716.559501,401.994197,-9839.286531,-7006.184573
12716.562035,1703.689691,11983.255581,-13859.228499
12716.564568,76.570323,-10451.849117,-6929.614250
12716.567102,-937.986459,-2143.969050,-9131.011042
12716.569636,-114.855485,14184.652373,-14912.070443
12716.572169,191.425808,-6623.332957,-8154.739421
12716.574703,708.275490,-3522.234867,-8020.741355
12716.577236,210.568389,9915.856854,-13610.374949
12716.579770,-287.138712,-9303.294269,-7121.040058
12716.582304,-229.710970,2201.396792,-10298.708470
12716.584837,267.996131,2641.676150,-11447.263318
12716.587371,114.855485,-4421.936165,-8365.307810
12716.589904,133.998066,593.420005,-10260.423309
12716.592438,306.281293,1378.265818,-10968.698798
12716.594972,76.570323,-2507.678085,-8920.442653
12716.597505,-267.996131,-1531.406464,-9571.290400
12716.600039,842.273555,3158.525832,-11294.122672
12716.602572,-1225.125171,784.845813,-10183.852986
12716.605106,114.855485,-6355.336826,-7829.315547
12716.607640,-669.990328,12289.536874,-13533.804626
12716.610173,-2967.100024,-8441.878133,-6872.186507
12716.612707,-1205.982590,2584.248408,-10183.852986
12716.615240,382.851616,10796.415571,-13476.376883
12716.617774,-842.273555,-13744.373014,-4862.215523
12716.620307,-1435.693560,9858.429112,-12768.101394
12716.622841,-727.418070,-114.855485,-10413.563955
12716.625375,-1646.261949,-6661.618118,-7082.754896
12716.627908,-497.707101,8193.024582,-12500.105262
12716.630442,-746.560651,-3311.666478,-8977.870395
12716.632975,-1703.689691,-2373.680019,-8690.731683
12716.635509,-1071.984525,3024.527766,-10470.991698
12716.638043,-574.277424,19.142581,-9801.001370
12716.640576,-842.273555,1378.265818,-9839.286531
12716.643110,-1359.123237,421.136778,-9724.431046
12716.645646,-325.423874,1091.127106,-10202.995566
12716.648181,-2201.396792,1799.402595,-9992.427178
12716.650717,669.990328,-2775.674216,-9092.725880
12716.653253,-363.709035,6776.473603,-11983.255581
12716.655789,-325.423874,-9973.284597,-6910.471669
12716.658324,1990.828403,6508.477472,-12289.536874
12716.660860,593.420005,727.418070,-10604.989763
12716.663396,248.853550,-12595.818166,-5264.209720
12716.665932,-382.851616,5647.061336,-11734.402030
12716.668468,-172.283227,4919.643266,-12117.253646
12716.671003,823.130974,-10394.421374,-6163.911018
12716.673539,918.843878,9188.438784,-13016.954944
12716.676075,95.712904,-3177.668413,-9552.147819
12716.678611,-421.136778,-3694.518094,-8212.167163
12716.681146,918.843878,4077.369710,-11523.833642
12716.683682,593.420005,-2986.242605,-9360.722011
12716.686218,-248.853550,-1033.699363,-9437.292334
12716.688754,-114.855485,574.277424,-10490.134278
12716.691290,535.992262,-861.416136,-9839.286531
12716.693825,-669.990328,-1129.412267,-9437.292334
12716.696361,1071.984525,-3254.238736,-9418.149754
12716.698897,459.421939,4728.217458,-11523.833642
12716.701433,-3464.807125,-4632.504554,-8020.741355
12716.703968,-172.283227,1148.554848,-10068.997501
12716.706504,-1416.550979,9896.714274,-12768.101394
12716.709040,-1588.834206,-13189.238171,-5091.926493
12716.711576,-1665.404530,12021.540742,-13438.091722
12716.714112,287.138712,-38.285162,-10145.567824
12716.716647,-784.845813,-7848.458128,-6699.903280
12716.719183,-765.703232,9628.718142,-13170.095590
12716.721719,-1703.689691,-4900.500685,-8461.020714
12716.724255,-1167.697429,344.566454,-9284.151688
12716.726790,-516.849682,5034.498750,-11236.694930
12716.729326,-1033.699363,-899.701298,-9839.286531
12716.731862,-1186.840010,669.990328,-9494.720077
12716.734398,-612.562586,2143.969050,-10394.421374
12716.736934,-1627.119368,-1033.699363,-9303.294269
12716.739469,-842.273555,3196.810994,-10585.847182
12716.742005,-1225.125171,-976.271621,-9475.577496
12716.744541,95.712904,1875.972918,-10222.138147
12716.747062,-2699.103893,-19.142581,-9820.143950
12716.749582,1473.978722,-3522.234867,-9169.296203
12716.752103,153.140646,8614.161360,-12614.960747
12716.754624,267.996131,-14567.503989,-5436.492947
12716.757145,-1091.127106,8461.020714,-8116.454259
12716.759666,210.568389,12519.247843,-14567.503989
12716.762186,19.142581,-13342.378818,-5704.489078
12716.764707,-133.998066,5053.641331,-11064.411702
12716.767228,-133.998066,4268.795518,-11791.829773
12716.769749,95.712904,-8575.876198,-6987.041992
12716.772270,555.134843,5876.772306,-12002.398162
12716.774790,-516.849682,-1473.978722,-10088.140082
12716.777311,191.425808,-2852.244539,-8748.159426
12716.779832,76.570323,2048.256146,-10949.556218
12716.782353,287.138712,-2124.826469,-9705.288466
12716.784874,325.423874,-535.992262,-9686.145885
12716.787394,-421.136778,-497.707101,-9858.429112
12716.789915,1301.695494,-1818.545176,-9839.286531
12716.792436,-1052.841944,2277.967115,-10547.562021
12716.794957,-1761.117434,-6259.623922,-7829.315547
12716.797478,-95.712904,9820.143950,-12710.673651
12716.799998,-2258.824534,-2526.820666,-8614.161360
12716.802519,-1416.550979,-5359.922624,-7657.032320
12716.805040,-19.142581,15754.343998,-14969.498186
12716.807561,-344.566454,-12155.538808,-5608.776174
12716.810082,-1359.123237,2794.816797,-10241.280728
12716.812602,-937.986459,6527.620053,-12595.818166
12716.815123,-1837.687757,-8901.300072,-6680.760699
12716.817644,-38.285162,6087.340694,-11504.691061
12716.820165,669.990328,6221.338760,-12270.394293
12716.822686,-2086.541307,-2316.252277,-8939.585234
12716.825206,-1033.699363,-95.712904,-9284.151688
12716.827727,-861.416136,4134.797453,-11236.694930
12716.830248,-1033.699363,-1512.263883,-9016.155557
12716.832769,-803.988394,1607.976787,-10088.140082
12716.835290,-976.271621,1167.697429,-10356.136213
12716.837810,-210.568389,1263.410333,-9915.856854
12716.840331,-2277.967115,-1952.543242,-9207.581365
12716.842852,2220.539373,440.279358,-10451.849117
12716.845373,-669.990328,5264.209720,-11466.405899
12716.847898,344.566454,-14088.939469,-5493.920690
12716.850423,153.140646,11868.400096,-9686.145885
12716.852948,535.992262,9781.858789,-13840.085918
12716.855472,-133.998066,-14644.074312,-4977.071008
12716.857997,-267.996131,7810.172966,-12136.396227
12716.860522,-114.855485,2105.683888,-11083.554283
12716.863047,38.285162,-8020.741355,-6795.616184
12716.865572,1052.841944,6661.618118,-12461.820101
12716.868097,-899.701298,-2450.250342,-9647.860723
12716.870622,153.140646,-2813.959378,-8633.303941
12716.873147,172.283227,3043.670347,-11236.694930
12716.875672,421.136778,-2947.957443,-9303.294269
12716.878196,440.279358,-823.130974,-9667.003304
12716.880721,-421.136778,746.560651,-10298.708470
12716.883246,1129.412267,-2450.250342,-9647.860723
12716.885771,-612.562586,2163.111630,-10490.134278
12716.888296,-2431.107762,-5015.356170,-8193.024582
12716.890821,-19.142581,7121.040058,-11830.114934
12716.893346,-1933.400661,918.843878,-9609.575562
12716.895871,-1512.263883,-8097.311678,-6795.616184
12716.898396,-363.709035,15850.056902,-14931.213024
12716.900920,-287.138712,-9360.722011,-6642.475538
12716.903445,-1454.836141,-937.986459,-8901.300072
12716.905970,-995.414202,8671.589102,-13208.380752
12716.908495,-1990.828403,-8729.016845,-6680.760699
12716.911020,-382.851616,3924.229064,-10700.702667
12716.913545,248.853550,6010.770371,-12059.825904
12716.916070,-2067.398726,-1301.695494,-9552.147819
12716.918595,-1110.269686,-976.271621,-8997.012976
12716.921120,-899.701298,3962.514226,-11121.839445
12716.923644,-1186.840010,-229.710970,-9533.005238
12716.926169,-612.562586,344.566454,-9628.718142
12716.928694,-1454.836141,1933.400661,-10394.421374
12716.931219,880.558717,669.990328,-9973.284597
12716.933744,-2737.389054,478.564520,-9705.288466
12716.936269,1473.978722,-5149.354235,-8729.016845
12716.938794,1435.693560,9781.858789,-13246.665914
12716.941319,306.281293,-12538.390424,-5991.627790
12716.943844,-976.271621,2124.826469,-10585.847182
12716.946368,325.423874,14376.078181,-15199.209155
12716.948897,229.710970,-8805.587168,-7312.465866
12716.951425,631.705166,-1856.830338,-8652.446522
12716.953953,306.281293,9016.155557,-13399.806560
12716.956482,-784.845813,-9245.866526,-7025.327154
12716.959010,401.994197,3158.525832,-10681.560086
12716.961538,153.140646,2182.254211,-11294.122672
12716.964066,-38.285162,-5819.344563,-7944.171032
12716.966595,-248.853550,3101.098090,-10987.841379
12716.969123,459.421939,-1167.697429,-10107.282662
12716.971651,459.421939,-3043.670347,-8863.014910
12716.974180,57.427742,3215.953574,-10987.841379
12716.976708,-555.134843,-2009.970984,-9647.860723
12716.979236,1703.689691,574.277424,-10202.995566
12716.981764,-2947.957443,3139.383251,-10279.565890
12716.984293,-1186.840010,-7657.032320,-7408.178770
12716.986821,-1205.982590,15352.349802,-14395.220762
12716.989349,-976.271621,-9437.292334,-6642.475538
12716.991878,-2048.256146,421.136778,-9456.434915
12716.994406,210.568389,11868.400096,-14127.224630
12716.996934,-478.564520,-12136.396227,-5704.489078
12716.999462,-689.132909,5627.918755,-11294.122672
12717.001991,-995.414202,2584.248408,-11179.267187
12717.004519,-2718.246474,-4996.213589,-7561.319416
12717.007047,19.142581,4345.365842,-9399.007173
12717.009575,-76.570323,3579.662610,-11255.837510
12717.012104,-842.273555,-669.990328,-9360.722011
12717.014632,-1627.119368,38.285162,-9399.007173
12717.017160,-1320.838075,3158.525832,-10758.130410
12717.019689,-708.275490,-459.421939,-9552.147819
12717.022217,-1569.691626,1301.695494,-9762.716208
12717.024745,-1186.840010,-1799.402595,-9475.577496
12717.027273,1875.972918,4479.363907,-11581.261384
12717.029802,-1493.121302,-3866.801322,-8805.587168
12717.032330,823.130974,-5589.633594,-8422.735552
12717.034858,995.414202,12366.107197,-14261.222696
12717.037387,248.853550,-13993.226565,-5436.492947
12717.039915,-516.849682,-9973.284597,-6297.909083
12717.042443,-555.134843,12729.816232,-14376.078181
12717.044971,-344.566454,-7082.754896,-7829.315547
12717.047500,1091.127106,-1225.125171,-8997.012976
12717.050031,880.558717,6527.620053,-12519.247843
12717.052563,-708.275490,-7255.038123,-7618.747158
12717.055094,784.845813,1741.974853,-10394.421374
12717.057626,267.996131,1703.689691,-11083.554283
12717.060157,133.998066,-5398.207786,-8327.022648
12717.062689,918.843878,2143.969050,-10930.413637
12717.065220,-306.281293,76.570323,-10145.567824
12717.067752,1167.697429,-4441.078746,-8652.446522
12717.070283,459.421939,4192.225195,-11140.982026
12717.072815,-3292.523898,-2794.816797,-8882.157491
12717.075347,19.142581,95.712904,-9609.575562
12717.077878,-1301.695494,9533.005238,-12500.105262
12717.080410,-1435.693560,-12634.103328,-5359.922624
12717.082941,-1512.263883,12538.390424,-13686.945272
12717.085473,57.427742,-1435.693560,-9686.145885
12717.088004,-1110.269686,-7101.897477,-6910.471669
12717.090536,-861.416136,9628.718142,-13170.095590
12717.093067,-1550.549045,-5589.633594,-8116.454259
12717.095599,-1052.841944,995.414202,-9552.147819
12717.098130,421.136778,3924.229064,-11523.833642
12717.100662,-2182.254211,-2067.398726,-10088.140082
12717.103193,-1186.840010,-248.853550,-9150.153622
12717.105725,-1493.121302,1416.550979,-10145.567824
12717.108256,-1627.119368,1531.406464,-10088.140082
12717.110788,-459.421939,-210.568389,-9533.005238
12717.113320,-1990.828403,2009.970984,-10126.425243
12717.115851,-325.423874,-2239.681954,-9322.436850
12717.118383,1091.127106,5302.494882,-11696.116869
