#time,accel_x,accel_y,accel_z
23766.094489,-153.140646,344.566454,9513.862658
23766.097040,-95.712904,421.136778,9590.432981
23766.099591,-306.281293,287.138712,9533.005238
23766.102142,-689.132909,19.142581,9437.292334
23766.104693,-325.423874,669.990328,9762.716208
23766.107244,-38.285162,-248.853550,9418.149754
23766.109795,-287.138712,76.570323,9552.147819
23766.112346,-363.709035,746.560651,9762.716208
23766.114897,-497.707101,-861.416136,9475.577496
23766.117448,-1091.127106,-1129.412267,9590.432981
23766.119999,114.855485,995.414202,9915.856854
23766.122550,516.849682,-1263.410333,8997.012976
23766.125101,-746.560651,784.845813,9762.716208
23766.127652,-401.994197,2967.100024,10260.423309
23766.130203,-1148.554848,-2335.394858,8805.587168
23766.132754,708.275490,-95.712904,9131.011042
23766.135305,-0.000000,803.988394,9743.573627
23766.137855,1722.832272,1627.119368,9743.573627
23766.140406,727.418070,-267.996131,9131.011042
23766.142957,-1799.402595,1320.838075,9915.856854
23766.145508,-267.996131,1052.841944,9686.145885
23766.148059,191.425808,-1225.125171,8901.300072
23766.150610,650.847747,2967.100024,10202.995566
23766.153161,382.851616,727.418070,9609.575562
23766.155712,267.996131,-612.562586,8958.727814
23766.158263,-612.562586,2048.256146,9954.142016
23766.160814,-306.281293,1167.697429,9743.573627
23766.163365,823.130974,-842.273555,9169.296203
23766.165916,631.705166,191.425808,9437.292334
23766.168467,57.427742,803.988394,9724.431046
23766.171018,-248.853550,1263.410333,9647.860723
23766.173569,-19.142581,401.994197,9360.722011
23766.176120,248.853550,-95.712904,9284.151688
23766.178671,459.421939,1818.545176,10011.569758
23766.181222,574.277424,918.843878,9609.575562
23766.183772,210.568389,114.855485,9265.009107
23766.186323,-995.414202,1799.402595,9877.571693
23766.188874,-574.277424,727.418070,9571.290400
23766.191425,784.845813,-133.998066,9092.725880
23766.193977,95.712904,1971.685822,9954.142016
23766.196530,-325.423874,1359.123237,10164.710405
23766.199082,708.275490,-133.998066,9188.438784
23766.201634,-306.281293,-421.136778,9188.438784
23766.204186,708.275490,3847.658741,10183.852986
23766.206738,-325.423874,-1244.267752,8977.870395
23766.209290,555.134843,2277.967115,9896.714274
23766.211842,-727.418070,-976.271621,9418.149754
23766.214395,-267.996131,3426.521963,10183.852986
23766.216947,1320.838075,-3426.521963,8365.307810
23766.219499,-2545.963246,1071.984525,10088.140082
23766.222051,1799.402595,7101.897477,11351.550414
23766.224603,114.855485,-13552.947206,5570.491013
23766.227155,-2392.822600,10604.989763,8537.591037
23766.229707,-1071.984525,13744.373014,13725.230434
23766.232260,708.275490,-12672.388490,5551.348432
23766.234812,-421.136778,2909.672282,10336.993632
23766.237364,-1780.260014,8920.442653,12308.679454
23766.239916,2545.963246,-11504.691061,5991.627790
23766.242468,-1454.836141,2928.814862,10413.563955
23766.245020,-306.281293,6795.616184,11696.116869
23766.247572,880.558717,-8939.585234,6757.331022
23766.250125,-1971.685822,2354.537438,10336.993632
23766.252677,-555.134843,5781.059402,11370.692995
23766.255229,1129.412267,-6719.045861,7293.323285
23766.257781,-937.986459,2641.676150,10145.567824
23766.260333,-1416.550979,5474.778109,11294.122672
23766.262885,-306.281293,-1761.117434,9207.581365
23766.265437,-248.853550,-1761.117434,8709.874264
23766.267990,325.423874,2354.537438,10145.567824
23766.270542,344.566454,133.998066,9667.003304
23766.273094,-421.136778,-765.703232,9265.009107
23766.275646,-631.705166,1359.123237,10030.712339
23766.278198,-689.132909,210.568389,9552.147819
23766.280750,-650.847747,-1454.836141,9169.296203
23766.283302,-95.712904,344.566454,9820.143950
23766.285855,-57.427742,516.849682,9628.718142
23766.288407,-114.855485,-478.564520,9245.866526
23766.290959,-1167.697429,95.712904,9399.007173
23766.293511,-57.427742,1607.976787,9934.999435
23766.296064,-172.283227,-899.701298,9245.866526
23766.298617,-114.855485,-325.423874,9494.720077
23766.301170,-497.707101,2526.820666,10298.708470
23766.303723,-1091.127106,-2373.680019,9092.725880
23766.306276,-363.709035,899.701298,9743.573627
23766.308828,-153.140646,-363.709035,9437.292334
23766.311381,-401.994197,937.986459,9628.718142
23766.313934,1990.828403,-153.140646,9284.151688
23766.316487,-2411.965181,-1761.117434,9111.868461
23766.319040,133.998066,8059.026517,11447.263318
23766.321593,976.271621,-8977.870395,6642.475538
23766.324146,-574.277424,-7178.467800,7101.897477
23766.326699,-574.277424,15180.066574,13859.228499
23766.329252,344.566454,-9475.577496,6393.621987
23766.331805,746.560651,-19.142581,9111.868461
23766.334358,-2718.246474,10375.278794,12825.529136
23766.336910,3330.809059,-8307.880067,6776.473603
23766.339463,-172.283227,1990.828403,9705.288466
23766.342016,-1320.838075,7235.895542,11715.259450
23766.344569,1244.267752,-7810.172966,7006.184573
23766.347122,-1359.123237,3024.527766,10107.282662
23766.349675,421.136778,6221.338760,11255.837510
23766.352228,957.129040,-6221.338760,7369.893608
23766.354781,-1167.697429,3866.801322,8518.448456
23766.357334,-746.560651,6412.764568,11351.550414
23766.359887,899.701298,-2679.961312,8690.731683
23766.362440,38.285162,-593.420005,8920.442653
23766.364993,-57.427742,4192.225195,10777.272990
23766.367545,555.134843,-861.416136,9322.436850
23766.370098,-325.423874,-823.130974,8901.300072
23766.372651,-382.851616,2392.822600,10183.852986
23766.375204,823.130974,1569.691626,9801.001370
23766.377757,459.421939,-1703.689691,8748.159426
23766.380310,-191.425808,2909.672282,10145.567824
23766.382863,-861.416136,1875.972918,9973.284597
23766.385416,344.566454,-2143.969050,8556.733618
23766.387969,459.421939,0.000000,9265.009107
23766.390522,-363.709035,2794.816797,10356.136213
23766.393075,401.994197,-1052.841944,9016.155557
23766.395628,-593.420005,727.418070,9533.005238
23766.398181,-114.855485,2182.254211,10011.569758
23766.400734,133.998066,-287.138712,9092.725880
23766.403288,478.564520,708.275490,9533.005238
23766.405841,-421.136778,2048.256146,10030.712339
23766.408394,1244.267752,19.142581,9379.864592
23766.410948,-2507.678085,-574.277424,9399.007173
23766.413501,1282.552914,5800.201982,10834.700733
23766.416054,708.275490,-9418.149754,6872.186507
23766.418608,-2239.681954,-4383.651003,8480.163294
23766.421161,-765.703232,13591.232368,13591.232368
23766.423714,1244.267752,-14031.511726,5225.924558
23766.426268,229.710970,4249.652938,10777.272990
23766.428821,-2431.107762,7963.313613,12117.253646
23766.431374,2335.394858,-11504.691061,5761.916821
23766.433928,-2756.531635,5474.778109,11236.694930
23766.436481,-1014.556782,5111.069074,11581.261384
23766.439034,1837.687757,-9303.294269,6508.477472
23766.441588,-2239.681954,5723.631659,11179.267187
23766.444141,57.427742,2928.814862,10681.560086
23766.446694,535.992262,-8250.452325,6987.041992
23766.449248,-1014.556782,5206.781978,11160.124606
23766.451801,-382.851616,6317.051664,11485.548480
23766.454354,555.134843,-3866.801322,8327.022648
23766.456908,-669.990328,-478.564520,9207.581365
23766.459461,-803.988394,3388.236802,10662.417506
23766.462014,-401.994197,-1684.547110,9054.440718
23766.464568,-344.566454,-344.566454,9322.436850
23766.467121,-344.566454,1397.408398,10164.710405
23766.469674,-114.855485,516.849682,9705.288466
23766.472228,-880.558717,-1875.972918,8958.727814
23766.474781,-535.992262,1473.978722,10088.140082
23766.477334,-267.996131,0.000000,9533.005238
23766.479888,-114.855485,-1799.402595,8997.012976
23766.482441,-708.275490,-133.998066,9609.575562
23766.484995,-210.568389,2469.392923,10222.138147
23766.487548,210.568389,-2048.256146,8786.444587
23766.490101,-401.994197,114.855485,9724.431046
23766.492655,-669.990328,3139.383251,10432.706536
23766.495208,-1033.699363,-3005.385186,8824.729749
23766.497761,-287.138712,1033.699363,9667.003304
23766.500315,-574.277424,-76.570323,9762.716208
23766.502869,114.855485,995.414202,9609.575562
23766.505423,1454.836141,-1646.261949,8939.585234
23766.507977,-2431.107762,1129.412267,9973.284597
23766.510531,1244.267752,5302.494882,10738.987829
23766.513085,-153.140646,-9801.001370,6585.047795
23766.515640,-880.558717,-1071.984525,8824.729749
23766.518194,57.427742,13265.808494,13284.951075
23766.520748,803.988394,-13227.523333,5187.639397
23766.523302,153.140646,5608.776174,10968.698798
23766.525856,-2220.539373,7216.752962,11810.972354
23766.528410,2641.676150,-9896.714274,6221.338760
23766.530964,-1493.121302,6948.756830,11274.980091
23766.533518,-172.283227,4383.651003,10700.702667
23766.536072,248.853550,-7867.600709,6967.899411
23766.538626,-1301.695494,6489.334891,11274.980091
23766.541180,1225.125171,2048.256146,9992.427178
23766.543734,861.416136,-4709.074877,7752.745224
23766.546288,-363.709035,5800.201982,9533.005238
23766.548842,-631.705166,4498.506488,10758.130410
23766.551396,784.845813,-3005.385186,8518.448456
23766.553950,-421.136778,555.134843,9533.005238
23766.556504,555.134843,2718.246474,10241.280728
23766.559058,803.988394,-669.990328,9226.723946
23766.561612,-574.277424,0.000000,9284.151688
23766.564166,-229.710970,2660.818731,10183.852986
23766.566720,38.285162,-459.421939,9188.438784
23766.569274,-0.000000,-57.427742,9303.294269
23766.571829,114.855485,3120.240670,10202.995566
23766.574383,689.132909,-133.998066,9092.725880
23766.576937,-306.281293,631.705166,9475.577496
23766.579491,-957.129040,2029.113565,10107.282662
23766.582045,1033.699363,650.847747,9418.149754
23766.584599,-210.568389,-1569.691626,8939.585234
23766.587153,631.705166,3905.086483,10432.706536
23766.589707,-421.136778,-421.136778,9284.151688
23766.592261,344.566454,229.710970,9303.294269
23766.594815,-1550.549045,1416.550979,9934.999435
23766.597369,1780.260014,2775.674216,9858.429112
23766.599923,-114.855485,-5015.356170,8097.311678
23766.602477,-1301.695494,7733.602643,11906.685258
23766.605032,1339.980656,-4039.084549,8135.596840
23766.607586,-2469.392923,-5417.350366,8116.454259
23766.610141,-1110.269686,13648.660110,13246.665914
23766.612695,57.427742,-1129.412267,9322.436850
23766.615250,1722.832272,-9437.292334,6259.623922
23766.617804,-3196.810994,12098.111066,13514.662045
23766.620359,861.416136,-3579.662610,8461.020714
23766.622913,382.851616,-5742.774240,7657.032320
23766.625468,-2660.818731,9896.714274,12825.529136
23766.628022,1569.691626,-5302.494882,7944.171032
23766.630577,-784.845813,-2928.814862,8537.591037
23766.633131,-1244.267752,7331.608446,12021.540742
23766.635685,363.709035,-5493.920690,7905.885870
23766.638240,-784.845813,-555.134843,9169.296203
23766.640794,-497.707101,5245.067139,11294.122672
23766.643349,612.562586,95.712904,9609.575562
23766.645903,-267.996131,-3120.240670,8575.876198
23766.648458,-1129.412267,3560.520029,10528.419440
23766.651012,229.710970,-478.564520,9456.434915
23766.653567,-267.996131,-842.273555,9150.153622
23766.656121,-440.279358,1607.976787,9973.284597
23766.658676,-38.285162,-861.416136,9437.292334
23766.661230,-765.703232,-153.140646,9513.862658
23766.663785,-746.560651,153.140646,9762.716208
23766.666339,-861.416136,-937.986459,9322.436850
23766.668893,210.568389,19.142581,9513.862658
23766.671448,555.134843,669.990328,9590.432981
23766.674002,-823.130974,669.990328,9743.573627
23766.676557,-306.281293,1110.269686,9781.858789
23766.679111,-1091.127106,-1933.400661,9035.298138
23766.681666,459.421939,650.847747,9762.716208
23766.684220,-631.705166,248.853550,9686.145885
23766.686775,1454.836141,574.277424,9552.147819
23766.689329,-1741.974853,-3005.385186,8939.585234
23766.691884,-918.843878,6374.479406,11198.409768
23766.694438,1971.685822,-5819.344563,7523.034254
23766.696993,-1493.121302,1837.687757,10145.567824
23766.699547,1588.834206,8939.585234,11830.114934
23766.702101,1033.699363,-13150.953010,5225.924558
23766.704656,-1052.841944,12117.253646,12902.099459
23766.707211,-2143.969050,11964.113000,13361.521398
23766.709765,2526.820666,-9628.718142,6240.481341
23766.712320,-306.281293,1607.976787,9762.716208
23766.714875,-823.130974,8001.598774,11925.827838
23766.717429,2660.818731,-7561.319416,6776.473603
23766.719984,-1607.976787,3809.373579,10432.706536
23766.722538,-267.996131,4307.080680,10872.985894
23766.725093,823.130974,-4766.502619,7714.460062
23766.727647,19.142581,4039.084549,10356.136213
23766.730202,421.136778,1914.258080,9973.284597
23766.732757,478.564520,-2239.681954,8633.303941
23766.735311,-1052.841944,2718.246474,10145.567824
23766.737866,401.994197,976.271621,9724.431046
23766.740420,976.271621,-842.273555,9245.866526
23766.742975,-191.425808,267.996131,9571.290400
23766.745529,153.140646,1780.260014,9954.142016
23766.748084,210.568389,421.136778,9418.149754
23766.750639,-593.420005,172.283227,9399.007173
23766.753193,210.568389,2201.396792,9934.999435
23766.755748,784.845813,976.271621,9456.434915
23766.758302,19.142581,421.136778,9379.864592
23766.760857,-784.845813,1052.841944,9858.429112
23766.763411,153.140646,-95.712904,9456.434915
23766.765966,-267.996131,899.701298,9609.575562
23766.768521,344.566454,1473.978722,9705.288466
23766.771075,-0.000000,976.271621,9513.862658
23766.773630,344.566454,-746.560651,9131.011042
23766.776184,-1129.412267,2182.254211,10088.140082
23766.778739,1359.123237,1378.265818,9571.290400
23766.781293,-1531.406464,-2431.107762,8729.016845
23766.783848,823.130974,7312.465866,11370.692995
23766.786403,918.843878,-8575.876198,6967.899411
23766.788957,-2871.387120,3962.514226,10872.985894
23766.791512,38.285162,5570.491013,11408.978157
23766.794066,669.990328,-14069.796888,5283.352301
23766.796621,-689.132909,12308.679454,13246.665914
23766.799175,-650.847747,-976.271621,9341.579430
23766.801730,1818.545176,-8671.589102,6680.760699
23766.804285,-1971.685822,2947.957443,10375.278794
23766.806839,-1416.550979,6144.768437,11753.544611
23766.809393,1837.687757,-8767.302006,6776.473603
23766.811948,-1091.127106,4173.082614,10643.274925
23766.814502,19.142581,3024.527766,10681.560086
23766.817056,-114.855485,-6604.190376,7637.889739
23766.819611,-1550.549045,3962.514226,10719.845248
23766.822165,114.855485,1014.556782,9973.284597
23766.824720,650.847747,-3215.953574,8480.163294
23766.827274,-727.418070,2086.541307,10049.854920
23766.829828,172.283227,1129.412267,9915.856854
23766.832383,-516.849682,-918.843878,9188.438784
23766.834937,-478.564520,-918.843878,9073.583299
23766.837492,-880.558717,631.705166,9877.571693
23766.840046,-689.132909,842.273555,9954.142016
23766.842600,-765.703232,-1875.972918,9111.868461
23766.845155,-899.701298,-363.709035,9590.432981
23766.847709,19.142581,880.558717,9839.286531
23766.850263,382.851616,-650.847747,9188.438784
23766.852818,-574.277424,803.988394,9858.429112
23766.855372,57.427742,746.560651,9705.288466
23766.857927,-937.986459,-1722.832272,8920.442653
23766.860481,-1148.554848,995.414202,10126.425243
23766.863035,-440.279358,823.130974,9858.429112
23766.865590,1301.695494,-2297.109696,8748.159426
23766.868144,-1588.834206,-2967.100024,8843.872330
23766.870698,-689.132909,6546.762634,11274.980091
23766.873253,1531.406464,-6738.188442,7408.178770
23766.875807,-1493.121302,3215.953574,10451.849117
23766.878362,1684.547110,7427.321350,11428.120738
23766.880916,823.130974,-12461.820101,5379.065205
23766.883470,-1091.127106,13150.953010,13246.665914
23766.886025,-1033.699363,-957.129040,9265.009107
23766.888579,1875.972918,-8039.883936,6642.475538
23766.891133,-2297.109696,11026.126541,12768.101394
23766.893688,2067.398726,-2871.387120,8633.303941
23766.896242,1416.550979,-4115.654872,7752.745224
23766.898797,-1569.691626,4843.072942,10700.702667
23766.901351,-593.420005,3483.949706,10681.560086
23766.903905,555.134843,-4804.787781,7791.030386
23766.906460,172.283227,4096.512291,10336.993632
23766.909014,803.988394,1799.402595,10030.712339
23766.911569,497.707101,-1875.972918,8786.444587
23766.914123,-593.420005,2086.541307,9934.999435
23766.916677,-248.853550,440.279358,9647.860723
23766.919232,-172.283227,593.420005,9475.577496
23766.921786,401.994197,0.000000,9284.151688
23766.924341,574.277424,574.277424,9686.145885
23766.926895,191.425808,1971.685822,9858.429112
23766.929449,-287.138712,38.285162,9533.005238
23766.932004,229.710970,669.990328,9303.294269
23766.934558,-593.420005,1799.402595,9896.714274
23766.937113,-229.710970,-95.712904,9552.147819
23766.939667,1071.984525,248.853550,9379.864592
23766.942221,-248.853550,1435.693560,9762.716208
23766.944776,172.283227,899.701298,9667.003304
23766.947330,306.281293,727.418070,9322.436850
23766.949885,19.142581,133.998066,9418.149754
23766.952439,-440.279358,2431.107762,10164.710405
23766.954993,995.414202,-631.705166,9245.866526
23766.957548,-1588.834206,842.273555,9743.573627
23766.960102,1741.974853,4153.940034,10413.563955
23766.962657,708.275490,-6259.623922,7599.604578
23766.965211,-2890.529701,248.853550,9820.143950
23766.967765,-38.285162,8116.454259,12174.681389
23766.970320,842.273555,-13591.232368,5436.492947
23766.972874,-306.281293,8882.157491,12174.681389
23766.975429,-1473.978722,2565.105827,10317.851051
23766.977983,1627.119368,-9399.007173,6393.621987
23766.980537,-2507.678085,7886.743290,11810.972354
23766.983092,76.570323,-210.568389,9801.001370
23766.985646,842.273555,-6565.905214,7580.461997
23766.988201,-1052.841944,6451.049730,11562.118803
23766.990755,516.849682,-957.129040,9265.009107
23766.993309,133.998066,-3885.943902,8039.883936
23766.995864,-1263.410333,1473.978722,9973.284597
23766.998418,-382.851616,2163.111630,10394.421374
23767.000973,497.707101,-2335.394858,8748.159426
23767.003527,-937.986459,995.414202,9762.716208
23767.006081,-172.283227,1895.115499,10183.852986
23767.008636,-248.853550,-1071.984525,8939.585234
23767.011190,-823.130974,-535.992262,9150.153622
23767.013744,-918.843878,1780.260014,10222.138147
23767.016298,-727.418070,-1052.841944,9418.149754
23767.018852,-1071.984525,-2048.256146,9207.581365
23767.021407,-19.142581,2105.683888,10241.280728
23767.023961,593.420005,-555.134843,9054.440718
23767.026515,-803.988394,-1971.685822,9073.583299
23767.029069,-248.853550,2545.963246,10298.708470
23767.031623,-976.271621,-1129.412267,9245.866526
23767.034178,-191.425808,-1435.693560,9226.723946
23767.036732,-1129.412267,2316.252277,10317.851051
23767.039286,1741.974853,-631.705166,9131.011042
23767.041840,-1282.552914,-2584.248408,8786.444587
23767.044394,95.712904,6049.055533,11121.839445
23767.046948,172.283227,-7389.036189,7465.606512
23767.049503,-1607.976787,6106.483275,11428.120738
23767.052057,1875.972918,3005.385186,10126.425243
23767.054611,267.996131,-9667.003304,6202.196179
23767.057165,-765.703232,15046.068509,11217.552349
23767.059719,-2182.254211,6757.331022,11734.402030
23767.062273,2584.248408,-10796.415571,5857.629725
23767.064828,-1359.123237,7140.182638,11581.261384
23767.067382,153.140646,3292.523898,10643.274925
23767.069936,2641.676150,-7446.463931,6661.618118
23767.072490,-1761.117434,7293.323285,11351.550414
23767.075044,76.570323,1933.400661,10107.282662
23767.077598,-76.570323,-5589.633594,7676.174901
23767.080153,-689.132909,6336.194245,11236.694930
23767.082707,1320.838075,267.996131,9513.862658
23767.085261,1071.984525,-3005.385186,8116.454259
23767.087815,-344.566454,4307.080680,10566.704602
23767.090369,229.710970,2201.396792,10183.852986
23767.092924,401.994197,-1416.550979,8939.585234
23767.095478,133.998066,1512.263883,9858.429112
23767.098032,612.562586,1014.556782,9743.573627
23767.100586,765.703232,669.990328,9418.149754
23767.103140,-248.853550,1837.687757,9571.290400
23767.105694,-574.277424,440.279358,9437.292334
23767.108249,-765.703232,784.845813,9743.573627
23767.110803,1014.556782,612.562586,9609.575562
23767.113340,459.421939,95.712904,9360.722011
23767.115877,-0.000000,2182.254211,10011.569758
23767.118414,287.138712,650.847747,9245.866526
23767.120951,38.285162,-1129.412267,8843.872330
23767.123488,-708.275490,1703.689691,9896.714274
23767.126026,1473.978722,2603.390989,10126.425243
23767.128563,-765.703232,-2871.387120,8786.444587
23767.131100,631.705166,6049.055533,10949.556218
23767.133637,76.570323,-6929.614250,7427.321350
23767.136174,-2967.100024,3981.656806,10853.843314
23767.138711,382.851616,3675.375514,10777.272990
23767.141248,727.418070,-12327.822035,5915.057467
23767.143786,-478.564520,11944.970419,13246.665914
23767.146323,-746.560651,-2009.970984,8977.870395
23767.148860,1091.127106,-7503.891674,7025.327154
23767.151397,-2488.535504,9801.001370,12346.964616
23767.153934,-880.558717,4651.647134,11332.407834
23767.156471,1397.408398,-7867.600709,7369.893608
23767.159009,-995.414202,3426.521963,10451.849117
23767.161546,229.710970,2335.394858,10222.138147
23767.164083,-114.855485,-5340.780043,7791.030386
23767.166620,-1493.121302,3809.373579,10643.274925
23767.169157,267.996131,133.998066,9647.860723
23767.171694,574.277424,-2890.529701,8480.163294
23767.174231,-306.281293,1875.972918,9992.427178
23767.176769,210.568389,842.273555,10068.997501
23767.179306,-555.134843,325.423874,9475.577496
23767.181843,-650.847747,-842.273555,9073.583299
23767.184380,-995.414202,76.570323,9322.436850
23767.186917,-899.701298,937.986459,10145.567824
23767.189454,574.277424,-516.849682,9437.292334
23767.191991,784.845813,-1129.412267,8997.012976
23767.194529,-1225.125171,1971.685822,10164.710405
23767.197066,-306.281293,880.558717,9590.432981
23767.199603,-459.421939,-2565.105827,8863.014910
23767.202140,-516.849682,918.843878,10088.140082
23767.204677,-516.849682,1359.123237,10049.854920
23767.207214,1416.550979,-2277.967115,8652.446522
23767.209751,-1359.123237,210.568389,9590.432981
23767.212289,842.273555,3771.088418,10470.991698
23767.214828,-746.560651,-6891.329088,7657.032320
23767.217367,-1225.125171,1167.697429,10011.569758
23767.219906,1588.834206,8269.594906,11791.829773
23767.222446,669.990328,-11944.970419,5627.918755
23767.224985,-957.129040,11600.403965,12748.958813
23767.227524,-1225.125171,708.275490,9686.145885
23767.230063,2469.392923,-8288.737486,6585.047795
23767.232603,-1914.258080,10260.423309,12653.245909
23767.235142,1033.699363,-1454.836141,9207.581365
23767.237681,1588.834206,-4900.500685,7484.749093
23767.240221,-1416.550979,7618.747158,11562.118803
23767.242760,401.994197,-497.707101,9226.723946
23767.245299,-727.418070,-2890.529701,8327.022648
23767.247838,-459.421939,5474.778109,10126.425243
23767.250378,727.418070,2545.963246,10260.423309
23767.252917,861.416136,-2373.680019,8499.305875
23767.255456,-708.275490,2469.392923,9877.571693
23767.257995,-114.855485,1588.834206,10030.712339
23767.260535,57.427742,-1416.550979,8882.157491
23767.263074,114.855485,1378.265818,9801.001370
23767.265613,957.129040,2201.396792,10107.282662
23767.268152,803.988394,-363.709035,9150.153622
23767.270692,-1186.840010,1416.550979,9686.145885
23767.273231,-918.843878,1990.828403,9915.856854
23767.275770,669.990328,-957.129040,8824.729749
23767.278309,306.281293,1186.840010,9762.716208
23767.280849,-19.142581,2967.100024,10356.136213
23767.283388,57.427742,1244.267752,9533.005238
23767.285927,-0.000000,-2316.252277,8556.733618
23767.288466,-880.558717,4077.369710,10585.847182
23767.291006,1052.841944,38.285162,9360.722011
23767.293545,-1014.556782,-784.845813,9207.581365
23767.296084,1512.263883,5187.639397,10681.560086
23767.298624,-1033.699363,-7599.604578,7503.891674
23767.301163,-1875.972918,8250.452325,11964.113000
23767.303702,459.421939,-3847.658741,8327.022648
23767.306241,-306.281293,-6278.766502,7714.460062
23767.308781,-1052.841944,12634.103328,13514.662045
23767.311320,880.558717,-8824.729749,10145.567824
23767.313859,1512.263883,-9954.142016,6221.338760
23767.316400,-2431.107762,8882.157491,12098.111066
23767.318941,76.570323,-421.136778,9609.575562
23767.321482,823.130974,-6240.481341,7637.889739
23767.324023,-1225.125171,5761.916821,11523.833642
23767.326564,535.992262,-516.849682,9513.862658
23767.329104,-306.281293,-3675.375514,8193.024582
23767.331645,-1225.125171,3885.943902,10719.845248
23767.334186,248.853550,-1205.982590,9418.149754
23767.336727,-440.279358,-803.988394,9303.294269
23767.339268,-191.425808,1952.543242,9934.999435
23767.341809,76.570323,-918.843878,9245.866526
23767.344350,-1071.984525,133.998066,9571.290400
23767.346891,-880.558717,267.996131,9590.432981
23767.349432,-631.705166,-1550.549045,9245.866526
23767.351973,-0.000000,1435.693560,10088.140082
23767.354513,153.140646,-421.136778,9379.864592
23767.357054,-727.418070,-1263.410333,9207.581365
23767.359595,-363.709035,2277.967115,10088.140082
23767.362136,-344.566454,-1129.412267,9073.583299
23767.364677,-1225.125171,-746.560651,9609.575562
23767.367218,-708.275490,2967.100024,10490.134278
23767.369759,650.847747,-3713.660675,8480.163294
23767.372300,-593.420005,2105.683888,10030.712339
23767.374841,497.707101,535.992262,9667.003304
23767.377382,-1301.695494,-5034.498750,8288.737486
23767.379922,-440.279358,7465.606512,11542.976222
23767.382463,1856.830338,-3560.520029,8212.167163
23767.385004,-593.420005,-1397.408398,8901.300072
23767.387545,57.427742,11562.118803,12748.958813
23767.390086,918.843878,-11274.980091,5704.489078
23767.392627,-248.853550,4709.074877,10796.415571
23767.395168,-1741.974853,7389.036189,11734.402030
23767.397709,2450.250342,-9609.575562,6489.334891
23767.400250,-1052.841944,5838.487144,11140.982026
23767.402790,153.140646,5015.356170,10911.271056
23767.405331,1033.699363,-5608.776174,7350.751027
23767.407872,-689.132909,-1818.545176,8652.446522
23767.410413,-727.418070,5647.061336,11198.409768
23767.412954,1435.693560,-1971.685822,8748.159426
23767.415495,-38.285162,-210.568389,9073.583299
23767.418037,631.705166,3292.523898,10241.280728
23767.420580,344.566454,-1799.402595,8977.870395
23767.423123,-478.564520,2086.541307,9915.856854
23767.425665,650.847747,1320.838075,9686.145885
23767.428208,440.279358,-784.845813,9092.725880
23767.430750,-325.423874,2545.963246,10183.852986
23767.433293,-210.568389,497.707101,9533.005238
23767.435835,669.990328,-191.425808,9169.296203
23767.438378,-95.712904,2813.959378,9609.575562
23767.440920,19.142581,1665.404530,10068.997501
23767.443463,1454.836141,-555.134843,8958.727814
23767.446005,-957.129040,382.851616,9609.575562
23767.448548,-76.570323,4000.799387,10413.563955
23767.451090,76.570323,-3560.520029,8365.307810
23767.453633,842.273555,3771.088418,10183.852986
23767.456175,765.703232,-1339.980656,9265.009107
23767.458718,-2297.109696,1837.687757,10145.567824
23767.461260,1052.841944,1741.974853,9820.143950
23767.463803,-1761.117434,-8116.454259,7523.034254
23767.466345,-861.416136,11600.403965,12921.242040
23767.468888,191.425808,-7503.891674,7312.465866
23767.471430,1569.691626,-10930.413637,5953.342629
23767.473973,-2392.822600,8078.169098,12232.109131
23767.476516,-1148.554848,1952.543242,10298.708470
23767.479058,1703.689691,-7484.749093,6853.043926
23767.481601,-2354.537438,6183.053598,11542.976222
23767.484143,440.279358,-382.851616,9628.718142
23767.486686,497.707101,-4555.934230,8001.598774
23767.489228,-1282.552914,4192.225195,10777.272990
23767.491771,-95.712904,0.000000,9667.003304
23767.494313,-708.275490,-3388.236802,8575.876198
23767.496856,-153.140646,2756.531635,10241.280728
23767.499398,248.853550,842.273555,9781.858789
23767.501941,-172.283227,-1301.695494,9399.007173
23767.504483,-612.562586,-650.847747,9456.434915
23767.507026,-976.271621,421.136778,9781.858789
23767.509568,-172.283227,440.279358,9647.860723
23767.512111,-172.283227,-1741.974853,8997.012976
23767.514653,-287.138712,1244.267752,10068.997501
23767.517196,-478.564520,-76.570323,9667.003304
23767.519740,-19.142581,-593.420005,9188.438784
23767.522283,-1205.982590,1301.695494,9877.571693
23767.524827,306.281293,-1301.695494,9265.009107
23767.527371,-516.849682,-746.560651,9437.292334
23767.529914,535.992262,2909.672282,10394.421374
23767.532458,-1205.982590,-3464.807125,8441.878133
23767.535002,-823.130974,2297.109696,10068.997501
23767.537545,2105.683888,-1320.838075,8901.300072
23767.540089,-1186.840010,-1244.267752,9131.011042
23767.542633,1091.127106,8863.014910,11638.689126
23767.545176,631.705166,-10547.562021,6106.483275
23767.547720,-497.707101,8575.876198,11925.827838
23767.550264,-1837.687757,4058.227130,10738.987829
23767.552808,2909.672282,-9475.577496,6087.340694
23767.555351,-1339.980656,9207.581365,12136.396227
23767.557895,57.427742,1052.841944,10030.712339
23767.560439,2316.252277,-7006.184573,6795.616184
23767.562982,-1646.261949,7427.321350,11504.691061
23767.565526,229.710970,1933.400661,11428.120738
23767.568070,784.845813,-3349.951640,8269.594906
23767.570613,-593.420005,0.000000,9284.151688
23767.573157,555.134843,4307.080680,10700.702667
23767.575701,612.562586,-1684.547110,8920.442653
23767.578244,76.570323,287.138712,9303.294269
23767.580788,344.566454,1990.828403,9954.142016
23767.583332,191.425808,727.418070,9437.292334
23767.585876,133.998066,19.142581,9322.436850
23767.588419,-191.425808,918.843878,9801.001370
23767.590963,95.712904,1493.121302,9954.142016
23767.593507,669.990328,287.138712,9169.296203
23767.596050,-172.283227,1569.691626,9628.718142
23767.598594,-555.134843,2105.683888,10126.425243
23767.601138,746.560651,765.703232,9456.434915
23767.603681,382.851616,-1990.828403,8863.014910
23767.606225,325.423874,4000.799387,10509.276859
23767.608769,95.712904,-1397.408398,9054.440718
23767.611312,-210.568389,1952.543242,9647.860723
23767.613856,995.414202,76.570323,9399.007173
23767.616400,-2756.531635,-1148.554848,9379.864592
23767.618943,880.558717,7044.469734,11447.263318
23767.621489,267.996131,-11696.116869,6163.911018
23767.624034,-1531.406464,7216.752962,11887.542677
23767.626579,-823.130974,3043.670347,10585.847182
23767.629124,1780.260014,-11255.837510,5723.631659
23767.631669,-229.710970,-784.845813,9399.007173
23767.634214,-2297.109696,9341.579430,12653.245909
23767.636759,2009.970984,-8097.311678,6814.758765
23767.639304,-1263.410333,172.283227,9456.434915
23767.641849,-1148.554848,5532.205851,11562.118803
23767.644394,746.560651,-4862.215523,7982.456194
23767.646939,-880.558717,172.283227,9399.007173
23767.649484,-765.703232,3809.373579,10911.271056
23767.652029,-191.425808,-3177.668413,8805.587168
23767.654574,-535.992262,593.420005,9475.577496
23767.657119,-57.427742,1722.832272,9934.999435
23767.659664,-650.847747,-861.416136,9265.009107
23767.662209,-937.986459,-153.140646,9609.575562
23767.664754,-191.425808,-650.847747,9341.579430
23767.667299,-133.998066,57.427742,9647.860723
23767.669844,-861.416136,555.134843,9877.571693
23767.672389,-440.279358,-1952.543242,9054.440718
23767.674934,-267.996131,1933.400661,9992.427178
23767.677480,-1014.556782,401.994197,9609.575562
23767.680025,593.420005,-2469.392923,8709.874264
23767.682570,-1167.697429,1799.402595,10107.282662
23767.685115,382.851616,1339.980656,10011.569758
23767.687660,-1033.699363,-3943.371645,8307.880067
23767.690205,133.998066,4823.930362,10719.845248
23767.692750,-0.000000,-4651.647134,8307.880067
23767.695295,-861.416136,-1129.412267,9207.581365
23767.697840,1225.125171,8461.020714,11676.974288
23767.700385,880.558717,-10968.698798,6049.055533
23767.702930,-650.847747,9820.143950,12251.251712
23767.705475,-1703.689691,3005.385186,10394.421374
23767.708020,2947.957443,-9341.579430,6106.483275
23767.710565,-1531.406464,10336.993632,12500.105262
23767.713110,421.136778,172.283227,9743.573627
23767.715655,2756.531635,-7829.315547,6853.043926
23767.718200,-1914.258080,8556.733618,11944.970419
23767.720745,-153.140646,1837.687757,9820.143950
23767.723291,650.847747,-5149.354235,7523.034254
23767.725837,-210.568389,363.709035,9284.151688
23767.728383,401.994197,4766.502619,10949.556218
23767.730929,727.418070,-2354.537438,8843.872330
23767.733475,-114.855485,555.134843,9322.436850
23767.736021,555.134843,2316.252277,10202.995566
23767.738567,114.855485,-133.998066,9245.866526
23767.741114,-76.570323,1033.699363,9475.577496
23767.743660,-76.570323,976.271621,9628.718142
23767.746206,708.275490,1186.840010,9647.860723
23767.748752,38.285162,1550.549045,9590.432981
23767.751298,191.425808,-229.710970,9322.436850
23767.753844,344.566454,1129.412267,9590.432981
23767.756390,-765.703232,1818.545176,9877.571693
23767.758936,631.705166,1837.687757,9954.142016
23767.761482,-267.996131,-2163.111630,8767.302006
23767.764028,1033.699363,4192.225195,10298.708470
23767.766574,-19.142581,-2794.816797,8690.731683
23767.769120,-1837.687757,4287.938099,10604.989763
23767.771666,1320.838075,-1167.697429,9073.583299
23767.774212,-1952.543242,-5685.346498,8307.880067
23767.776758,-765.703232,11925.827838,13112.667848
23767.779304,516.849682,-11581.261384,6068.198114
23767.781850,765.703232,1684.547110,9781.858789
23767.784396,-2833.101958,8805.587168,12595.818166
23767.786942,1799.402595,-10949.556218,6144.768437
23767.789488,1761.117434,-5915.057467,7255.038123
23767.792034,-2584.248408,8595.018779,12423.534939
23767.794580,459.421939,-2833.101958,8997.012976
23767.797126,133.998066,-4632.504554,7925.028451
23767.799672,-995.414202,5130.211654,11045.269122
23767.802218,306.281293,-937.986459,9437.292334
23767.804764,-229.710970,-2833.101958,8537.591037
23767.807311,-267.996131,2469.392923,10336.993632
23767.809857,-95.712904,1607.976787,10202.995566
23767.812403,-631.705166,-2699.103893,8441.878133
23767.814949,-1033.699363,631.705166,9724.431046
23767.817495,-976.271621,2124.826469,10394.421374
23767.820041,287.138712,-2699.103893,8748.159426
23767.822587,-535.992262,-3158.525832,8690.731683
23767.825133,114.855485,2488.535504,10413.563955
23767.827680,-19.142581,172.283227,9609.575562
23767.830227,-1033.699363,-2297.109696,9054.440718
23767.832773,-574.277424,3694.518094,10451.849117
23767.835320,-382.851616,-2545.963246,8863.014910
23767.837866,153.140646,1607.976787,9877.571693
23767.840413,-612.562586,-650.847747,9762.716208
23767.842960,-1091.127106,1416.550979,9954.142016
23767.845506,2622.533570,95.712904,9150.153622
23767.848053,-1359.123237,-4115.654872,8307.880067
23767.850600,191.425808,11370.692995,12576.675586
23767.853146,823.130974,2335.394858,10030.712339
23767.855693,1799.402595,-9111.868461,6183.053598
23767.858239,-2182.254211,12614.960747,13246.665914
23767.860786,612.562586,-2507.678085,8461.020714
23767.863333,2354.537438,-7274.180704,6795.616184
23767.865879,-2565.105827,11236.694930,13112.667848
23767.868426,2067.398726,-2565.105827,8556.733618
23767.870973,918.843878,-4383.651003,7523.034254
23767.873519,-1339.980656,8556.733618,12059.825904
23767.876066,497.707101,-1167.697429,9092.725880
23767.878612,401.994197,-2928.814862,8097.311678
23767.881159,19.142581,4326.223261,10681.560086
23767.883706,574.277424,574.277424,9686.145885
23767.886252,248.853550,-957.129040,9073.583299
23767.888799,191.425808,363.709035,9245.866526
23767.891345,191.425808,1799.402595,9973.284597
23767.893892,-0.000000,1225.125171,9647.860723
23767.896439,669.990328,57.427742,9188.438784
23767.898985,57.427742,2258.824534,9934.999435
23767.901532,-478.564520,1091.127106,9839.286531
23767.904079,1033.699363,-976.271621,8920.442653
23767.906625,-823.130974,2067.398726,10030.712339
23767.909172,497.707101,2086.541307,10030.712339
23767.911718,-38.285162,-3081.955509,8537.591037
23767.914265,1052.841944,4345.365842,10317.851051
23767.916812,-57.427742,-1014.556782,9245.866526
23767.919358,-2603.390989,2833.101958,10490.134278
23767.921905,1588.834206,1129.412267,9724.431046
23767.924452,-1339.980656,-8288.737486,7369.893608
23767.926999,-1397.408398,12423.534939,13399.806560
23767.929546,172.283227,-8365.307810,6948.756830
23767.932094,1282.552914,-3962.514226,8231.309744
23767.934641,-3407.379382,11925.827838,13476.376883
23767.937189,1014.556782,-8595.018779,6872.186507
23767.939736,229.710970,-1282.552914,8805.587168
23767.942283,-2163.111630,9762.716208,12806.386555
23767.944831,1435.693560,-7408.178770,7389.036189
23767.947378,-535.992262,-1856.830338,7044.469734
23767.949926,-1110.269686,5283.352301,11121.839445
23767.952473,153.140646,1033.699363,10107.282662
23767.955021,229.710970,-4173.082614,8078.169098
23767.957568,-516.849682,3101.098090,10413.563955
23767.960115,-19.142581,1665.404530,10298.708470
23767.962663,-267.996131,-2986.242605,8518.448456
23767.965210,-918.843878,1014.556782,9954.142016
23767.967758,-842.273555,1263.410333,10126.425243
23767.970305,-57.427742,-2660.818731,8901.300072
23767.972852,-459.421939,-574.277424,9475.577496
23767.975400,-133.998066,2909.672282,10317.851051
23767.977947,-746.560651,-1952.543242,8958.727814
23767.980495,535.992262,-1837.687757,8748.159426
23767.983042,-957.129040,344.566454,9609.575562
23767.985590,210.568389,3656.232933,10509.276859
23767.988137,-765.703232,-4709.074877,8384.450390
23767.990684,-114.855485,4460.221326,10796.415571
23767.993232,1741.974853,-2986.242605,8575.876198
23767.995779,-1320.838075,957.129040,9628.718142
23767.998327,1282.552914,6623.332957,10968.698798
23768.000874,401.994197,-10432.706536,6259.623922
23768.003422,-535.992262,11715.259450,12768.101394
23768.005969,-976.271621,-267.996131,9322.436850
23768.008516,2067.398726,-7676.174901,6795.616184
23768.011064,-2373.680019,11944.970419,10068.997501
23768.013611,-1531.406464,7714.460062,12002.398162
23768.016159,2775.674216,-9303.294269,6259.623922
23768.018706,-1588.834206,4594.219392,10547.562021
23768.021253,-612.562586,6738.188442,11657.831707
23768.023801,937.986459,-6776.473603,7082.754896
23768.026348,-172.283227,3062.812928,10126.425243
23768.028896,-287.138712,3560.520029,10777.272990
23768.031444,784.845813,-2603.390989,8499.305875
23768.033992,-172.283227,344.566454,9150.153622
23768.036540,516.849682,2392.822600,10222.138147
23768.039088,-76.570323,478.564520,9437.292334
23768.041636,363.709035,325.423874,9226.723946
23768.044184,325.423874,1359.123237,9379.864592
23768.046732,-344.566454,1550.549045,9877.571693
23768.049279,-516.849682,229.710970,9590.432981
23768.051827,861.416136,1359.123237,9533.005238
23768.054375,421.136778,-612.562586,9265.009107
23768.056923,363.709035,1933.400661,9877.571693
23768.059471,-0.000000,-574.277424,9322.436850
23768.062019,-267.996131,2450.250342,9839.286531
23768.064567,937.986459,-1454.836141,8824.729749
23768.067115,-2718.246474,708.275490,9801.001370
23768.069663,1052.841944,6489.334891,11255.837510
23768.072211,325.423874,-12557.533005,5934.200048
23768.074759,-612.562586,9284.151688,8384.450390
23768.077306,-2143.969050,12729.816232,13744.373014
23768.079854,1588.834206,-11696.116869,5800.201982
23768.082402,-765.703232,1186.840010,9877.571693
23768.084950,-3120.240670,9896.714274,12844.671717
23768.087498,2488.535504,-9839.286531,6240.481341
23768.090046,-1646.261949,1780.260014,9992.427178
23768.092594,-1167.697429,6833.901346,12040.683323
23768.095142,937.986459,-8365.307810,7025.327154
23768.097690,-669.990328,1531.406464,9877.571693
23768.100238,-535.992262,4517.649069,11179.267187
23768.102786,401.994197,-4345.365842,8116.454259
23768.105333,-727.418070,1397.408398,9647.860723
23768.107881,-861.416136,3349.951640,10662.417506
23768.110429,-325.423874,-1263.410333,9303.294269
23768.112978,-631.705166,-957.129040,9303.294269
23768.115526,-746.560651,325.423874,9858.429112
23768.118074,248.853550,-1550.549045,9207.581365
23768.120622,-153.140646,1148.554848,9781.858789
23768.123170,-1110.269686,229.710970,9762.716208
23768.125718,153.140646,-1359.123237,9092.725880
23768.128267,-1359.123237,612.562586,9743.573627
23768.130815,382.851616,2086.541307,10068.997501
23768.133363,-823.130974,-2699.103893,8690.731683
23768.135911,784.845813,2794.816797,10279.565890
23768.138459,2048.256146,-4096.512291,8633.303941
23768.141007,-1550.549045,1167.697429,9781.858789
23768.143555,1263.410333,6757.331022,10987.841379
23768.146104,823.130974,-10719.845248,5972.485210
23768.148652,-516.849682,11638.689126,12806.386555
23768.151200,-1167.697429,1033.699363,9781.858789
23768.153748,2048.256146,-8709.874264,6412.764568
23768.156296,-2220.539373,11676.974288,13093.525267
23768.158844,995.414202,-1378.265818,9226.723946
23768.161392,1454.836141,-7503.891674,6929.614250
23768.163941,-2029.113565,10700.702667,12672.388490
23768.166489,1129.412267,-1282.552914,8997.012976
23768.169037,880.558717,-4613.361973,7542.176835
23768.171585,-172.283227,2392.822600,9839.286531
23768.174133,-153.140646,3675.375514,10719.845248
23768.176681,382.851616,-1895.115499,8824.729749
23768.179229,-133.998066,669.990328,9360.722011
23768.181778,612.562586,937.986459,9647.860723
23768.184326,-76.570323,1684.547110,9839.286531
23768.186874,937.986459,1665.404530,9513.862658
23768.189422,-344.566454,133.998066,9207.581365
23768.191970,-1205.982590,2450.250342,10164.710405
23768.194518,440.279358,-535.992262,9188.438784
23768.197066,153.140646,765.703232,9590.432981
23768.199615,229.710970,3062.812928,10279.565890
23768.202163,-363.709035,-2392.822600,9284.151688
23768.204711,1799.402595,287.138712,9188.438784
23768.207259,-1531.406464,19.142581,9609.575562
23768.209807,-1033.699363,5761.916821,10987.841379
23768.212339,1856.830338,-6623.332957,7350.751027
23768.214870,-2775.674216,842.273555,10011.569758
23768.217402,-421.136778,10088.140082,12595.818166
23768.219934,823.130974,-15754.343998,4747.360038
23768.222465,-555.134843,7484.749093,12002.398162
23768.224997,-1531.406464,6068.198114,11715.259450
23768.227528,2718.246474,-13610.374949,5053.641331
23768.230060,-2622.533570,7829.315547,11657.831707
23768.232592,-306.281293,5015.356170,11160.124606
23768.235123,1569.691626,-7810.172966,7178.467800
23768.237655,-516.849682,-3235.096155,8441.878133
23768.240187,-1837.687757,8556.733618,12423.534939
23768.242718,631.705166,-5398.207786,7867.600709
23768.245250,-248.853550,-1933.400661,8652.446522
23768.247781,-478.564520,6068.198114,11389.835576
23768.250313,574.277424,-2201.396792,9054.440718
23768.252845,-555.134843,-1646.261949,8901.300072
23768.255376,-1263.410333,2622.533570,10547.562021
23768.257908,-516.849682,-1971.685822,9303.294269
23768.260439,631.705166,-2163.111630,8863.014910
23768.262971,344.566454,2488.535504,10145.567824
23768.265503,-1512.263883,114.855485,10279.565890
23768.268034,-172.283227,-708.275490,9207.581365
23768.270566,-823.130974,-2316.252277,8901.300072
23768.273097,191.425808,4421.936165,10758.130410
23768.275629,-976.271621,-2641.676150,8939.585234
23768.278161,229.710970,2163.111630,9915.856854
23768.280692,1818.545176,-2220.539373,8977.870395
23768.283224,-1607.976787,1378.265818,9992.427178
23768.285755,1435.693560,5398.207786,10738.987829
23768.288287,555.134843,-9552.147819,6374.479406
23768.290819,-344.566454,11657.831707,12729.816232
23768.293350,-708.275490,-38.285162,9322.436850
23768.295882,1607.976787,-7676.174901,6757.331022
23768.298414,325.423874,3158.525832,10126.425243
23768.300945,-1435.693560,7867.600709,12059.825904
23768.303477,2488.535504,-9839.286531,6278.766502
23768.306008,-1301.695494,5034.498750,10738.987829
23768.308540,-535.992262,6757.331022,11466.405899
23768.311072,1531.406464,-7006.184573,6757.331022
23768.313606,-57.427742,3426.521963,10126.425243
23768.316140,153.140646,2756.531635,10509.276859
23768.318674,153.140646,-2469.392923,8843.872330
23768.321208,-631.705166,2354.537438,9896.714274
23768.323743,612.562586,306.281293,9418.149754
23768.326277,382.851616,976.271621,9399.007173
23768.328811,574.277424,3120.240670,10030.712339
23768.331345,-133.998066,-574.277424,9169.296203
23768.333880,784.845813,133.998066,9494.720077
23768.336414,-478.564520,3809.373579,10470.991698
23768.338948,1014.556782,-1914.258080,8786.444587
23768.341482,191.425808,535.992262,9418.149754
23768.344017,-0.000000,2833.101958,10336.993632
23768.346551,-995.414202,-287.138712,9303.294269
23768.349085,1569.691626,535.992262,9379.864592
23768.351619,-2105.683888,-2450.250342,8997.012976
23768.354153,-210.568389,8575.876198,11887.542677
23768.356688,1282.552914,-10107.282662,6355.336826
23768.359222,-1167.697429,1378.265818,10183.852986
23768.361756,-1837.687757,13533.804626,13916.656242
23768.364290,344.566454,-5321.637462,7886.743290
23768.366825,1263.410333,-7235.895542,7159.325219
23768.369359,-3560.520029,11925.827838,13361.521398
23768.371893,1473.978722,-4957.928427,8001.598774
23768.374427,-210.568389,-4709.074877,7810.172966
23768.376962,-1952.543242,9705.288466,12806.386555
23768.379496,555.134843,-5666.203917,7982.456194
23768.382030,574.277424,-3503.092286,8193.024582
23768.384564,-440.279358,6259.623922,11581.261384
23768.387098,344.566454,-1818.545176,9073.583299
23768.389633,-727.418070,-2163.111630,8633.303941
23768.392167,-1397.408398,2852.244539,9724.431046
23768.394701,-1263.410333,784.845813,10107.282662
23768.397235,-306.281293,-1837.687757,9284.151688
23768.399770,803.988394,-765.703232,9284.151688
23768.402304,344.566454,918.843878,9839.286531
23768.404838,-1703.689691,-535.992262,9590.432981
23768.407372,-497.707101,823.130974,9609.575562
23768.409906,-842.273555,-1512.263883,9150.153622
23768.412441,191.425808,2699.103893,10241.280728
23768.414977,-574.277424,-1971.685822,9226.723946
23768.417513,-440.279358,2775.674216,10145.567824
23768.420049,2545.963246,-2201.396792,8729.016845
23768.422586,-1378.265818,-1378.265818,9188.438784
23768.425122,-803.988394,11504.691061,12748.958813
23768.427658,1339.980656,-3349.951640,8212.167163
23768.430194,1225.125171,-3866.801322,7867.600709
23768.432731,-2469.392923,12787.243974,13361.521398
23768.435267,2048.256146,-7657.032320,6757.331022
23768.437803,1454.836141,-1761.117434,8518.448456
23768.440339,-2124.826469,10681.560086,12940.384621
23768.442875,2277.967115,-8001.598774,6891.329088
23768.445412,-650.847747,918.843878,9475.577496
23768.447948,-1091.127106,9092.725880,12232.109131
23768.450484,1435.693560,-6087.340694,7178.467800
23768.453020,-172.283227,1167.697429,9379.864592
23768.455557,-440.279358,4900.500685,10853.843314
23768.458093,995.414202,248.853550,9667.003304
23768.460629,421.136778,-1205.982590,8882.157491
23768.463165,421.136778,3503.092286,10183.852986
23768.465701,363.709035,574.277424,9360.722011
23768.468238,-440.279358,784.845813,9418.149754
23768.470774,-516.849682,1282.552914,9743.573627
23768.473310,1244.267752,1435.693560,9552.147819
23768.475846,229.710970,-995.414202,9188.438784
23768.478383,631.705166,2029.113565,9877.571693
23768.480919,-382.851616,114.855485,9475.577496
23768.483455,880.558717,1588.834206,9494.720077
23768.485991,172.283227,-2794.816797,8729.016845
23768.488527,-2392.822600,-76.570323,9667.003304
23768.491064,574.277424,7484.749093,11638.689126
23768.493600,842.273555,-12174.681389,5761.916821
23768.496136,-1684.547110,6833.901346,11619.546546
23768.498672,-1416.550979,3981.656806,11121.839445
23768.501209,2411.965181,-12519.247843,5474.778109
23768.503745,-2909.672282,9781.858789,12710.673651
23768.506281,-1665.404530,2086.541307,10509.276859
23768.508817,2239.681954,-9915.856854,6106.483275
23768.511354,-2239.681954,9092.725880,12251.251712
23768.513890,555.134843,172.283227,9743.573627
23768.516411,803.988394,-8193.024582,6757.331022
23768.518933,-401.994197,-95.712904,9437.292334
23768.521454,-248.853550,4996.213589,11313.265253
23768.523975,191.425808,-3694.518094,8461.020714
23768.526497,-1320.838075,172.283227,9399.007173
23768.529018,-1512.263883,2526.820666,10394.421374
23768.531540,-842.273555,-2431.107762,8824.729749
23768.534061,-574.277424,-880.558717,9399.007173
23768.536582,19.142581,1761.117434,10164.710405
23768.539104,210.568389,-1014.556782,9360.722011
23768.541625,-1378.265818,-1761.117434,9169.296203
23768.544147,-1110.269686,3732.803256,10566.704602
23768.546668,-631.705166,-2048.256146,8997.012976
23768.549190,38.285162,267.996131,9456.434915
23768.551711,1378.265818,1186.840010,9762.716208
23768.554232,-1875.972918,-114.855485,9686.145885
23768.556754,1071.984525,4192.225195,10413.563955
23768.559275,306.281293,-7676.174901,7159.325219
23768.561797,-1263.410333,8901.300072,12040.683323
23768.564318,976.271621,2450.250342,9896.714274
23768.566839,1818.545176,-9111.868461,6106.483275
23768.569361,-2067.398726,12212.966550,13189.238171
23768.571882,612.562586,-2392.822600,8499.305875
23768.574404,2641.676150,-7350.751027,6642.475538
23768.576925,-2392.822600,11638.689126,13150.953010
23768.579446,1722.832272,-3598.805190,8403.592971
23768.581968,1933.400661,-8671.589102,6489.334891
23768.584489,-995.414202,5474.778109,10968.698798
23768.587011,-1052.841944,4709.074877,10987.841379
23768.589532,267.996131,-4421.936165,7867.600709
23768.592054,-57.427742,2431.107762,9820.143950
23768.594575,937.986459,1856.830338,10088.140082
23768.597096,1129.412267,-478.564520,9111.868461
23768.599618,478.564520,1895.115499,9781.858789
23768.602139,-612.562586,861.416136,9628.718142
23768.604661,-842.273555,1875.972918,9915.856854
23768.607182,746.560651,153.140646,9092.725880
23768.609703,153.140646,459.421939,9533.005238
23768.612225,248.853550,3483.949706,10432.706536
23768.614746,-459.421939,-689.132909,9226.723946
23768.617272,1627.119368,401.994197,9150.153622
23768.619797,-880.558717,-612.562586,9475.577496
23768.622322,-2067.398726,5091.926493,11121.839445
23768.624848,2105.683888,-4000.799387,8212.167163
23768.627373,-2105.683888,-3235.096155,8709.874264
23768.629899,-1244.267752,12136.396227,13189.238171
23768.632424,535.992262,-13208.380752,5608.776174
23768.634949,478.564520,1761.117434,10088.140082
23768.637475,-2048.256146,9973.284597,12691.531070
23768.640000,2335.394858,-12748.958813,5474.778109
23768.642525,-1646.261949,3254.238736,10604.989763
23768.645051,-2488.535504,11523.833642,13208.380752
23768.647576,1129.412267,-3866.801322,8499.305875
23768.650102,-57.427742,-6355.336826,7350.751027
23768.652627,-2220.539373,8633.303941,12423.534939
23768.655152,-191.425808,-2775.674216,8901.300072
23768.657678,-248.853550,-3809.373579,8097.311678
23768.660203,-1225.125171,5245.067139,11236.694930
23768.662728,19.142581,-976.271621,9513.862658
23768.665254,-650.847747,-3254.238736,8499.305875
23768.667779,-669.990328,2143.969050,10279.565890
23768.670305,38.285162,0.000000,9705.288466
23768.672830,-267.996131,-1952.543242,9111.868461
23768.675355,-516.849682,210.568389,9820.143950
23768.677881,-1110.269686,1148.554848,9839.286531
23768.680406,-76.570323,937.986459,9762.716208
23768.682931,-880.558717,-2029.113565,8920.442653
23768.685457,1148.554848,1837.687757,9934.999435
23768.687982,-1493.121302,-1799.402595,9207.581365
23768.690508,-191.425808,5838.487144,10911.271056
23768.693033,1569.691626,-5800.201982,7580.461997
23768.695558,-1033.699363,2986.242605,10317.851051
23768.698084,478.564520,7982.456194,11638.689126
23768.700609,1741.974853,-10509.276859,5685.346498
23768.703134,-1397.408398,8212.167163,11887.542677
23768.705660,-669.990328,3579.662610,10547.562021
23768.708185,3120.240670,-7599.604578,7006.184573
23768.710711,325.423874,-1588.834206,8690.731683
23768.713236,-1588.834206,10662.417506,12672.388490
23768.715761,2297.109696,-7676.174901,6872.186507
23768.718289,-95.712904,842.273555,9399.007173
23768.720818,-1703.689691,8441.878133,12155.538808
23768.723347,516.849682,-4383.651003,8001.598774
23768.725876,-0.000000,-363.709035,9035.298138
23768.728405,210.568389,5168.496816,10968.698798
23768.730934,1799.402595,-1282.552914,8824.729749
23768.733462,-114.855485,-153.140646,9111.868461
23768.735991,-1033.699363,3751.945837,10604.989763
23768.738520,516.849682,-191.425808,10126.425243
23768.741049,-191.425808,-1435.693560,8805.587168
23768.743578,229.710970,2124.826469,10068.997501
23768.746107,57.427742,1071.984525,9743.573627
23768.748636,1282.552914,-861.416136,8939.585234
23768.751165,-1952.543242,1607.976787,10068.997501
23768.753694,976.271621,4211.367776,10528.419440
23768.756222,306.281293,-8882.157491,7121.040058
23768.758751,-2641.676150,8977.870395,12327.822035
23768.761280,401.994197,-1320.838075,9111.868461
23768.763809,153.140646,-10030.712339,6431.907149
23768.766338,-2297.109696,13265.808494,14031.511726
23768.768867,1263.410333,-6278.766502,7618.747158
23768.771396,2335.394858,-12882.956878,5359.922624
23768.773925,-3139.383251,7178.467800,11753.544611
23768.776453,-555.134843,4192.225195,11121.839445
23768.778982,1301.695494,-10088.140082,6202.196179
23768.781511,-2124.826469,7159.325219,11734.402030
23768.784040,-382.851616,1416.550979,10183.852986
23768.786569,1320.838075,-7599.604578,7082.754896
23768.789098,-880.558717,4555.934230,11045.269122
23768.791627,114.855485,1646.261949,10183.852986
23768.794156,-172.283227,-4345.365842,8154.739421
23768.796684,-1818.545176,2450.250342,10394.421374
23768.799213,-172.283227,765.703232,9934.999435
23768.801742,708.275490,-2584.248408,9035.298138
23768.804271,-957.129040,-1799.402595,9322.436850
23768.806800,210.568389,1971.685822,10260.423309
23768.809329,-267.996131,-1416.550979,9092.725880
23768.811858,19.142581,937.986459,9552.147819
23768.814387,-1569.691626,459.421939,9877.571693
23768.816915,1493.121302,631.705166,9475.577496
23768.819431,-727.418070,-4000.799387,8480.163294
23768.821946,-1397.408398,9016.155557,11944.970419
23768.824462,2450.250342,-5091.926493,7561.319416
23768.826977,-306.281293,-2354.537438,8652.446522
23768.829493,-401.994197,13820.943338,13418.949141
23768.832008,1799.402595,-11332.407834,5436.492947
23768.834523,1091.127106,-8958.727814,6604.190376
23768.837039,-2220.539373,13744.373014,13840.085918
23768.839554,2354.537438,-3713.660675,8231.309744
23768.842070,1397.408398,-6393.621987,6967.899411
23768.844585,-2163.111630,12155.538808,13208.380752
23768.847100,1703.689691,-4555.934230,8039.883936
23768.849616,363.709035,-3445.664544,8001.598774
23768.852131,-1493.121302,9896.714274,12519.247843
23768.854647,689.132909,-3598.805190,8441.878133
23768.857162,-133.998066,-1512.263883,8709.874264
23768.859677,-76.570323,6393.621987,11140.982026
23768.862193,937.986459,-2450.250342,8480.163294
23768.864708,-574.277424,497.707101,8575.876198
23768.867224,-0.000000,3369.094221,10317.851051
23768.869739,382.851616,2277.967115,9820.143950
23768.872255,478.564520,-1627.119368,8729.016845
23768.874770,-19.142581,1952.543242,9877.571693
23768.877285,-133.998066,899.701298,9781.858789
23768.879801,689.132909,1454.836141,9418.149754
23768.882316,1052.841944,-3235.096155,8422.735552
23768.884832,-2928.814862,4345.365842,11045.269122
23768.887347,1339.980656,2679.961312,10336.993632
23768.889862,-344.566454,-11964.113000,6010.770371
23768.892378,-2182.254211,13667.802691,13782.658176
23768.894893,-229.710970,-4670.789715,8403.592971
23768.897409,2660.818731,-14624.931731,4938.785846
23768.899924,-2277.967115,6967.899411,11734.402030
23768.902439,-3177.668413,7121.040058,12117.253646
23768.904955,2679.961312,-12768.101394,5340.780043
23768.907470,-1799.402595,6565.905214,11466.405899
23768.909986,325.423874,4670.789715,11179.267187
23768.912501,1167.697429,-10528.419440,6221.338760
23768.915017,-2124.826469,6527.620053,11562.118803
23768.917532,-555.134843,1952.543242,10394.421374
23768.920053,-344.566454,-6833.901346,7293.323285
23768.922573,-1837.687757,5283.352301,11083.554283
23768.925094,-38.285162,-459.421939,9801.001370
23768.927614,555.134843,-4287.938099,8097.311678
23768.930135,-727.418070,976.271621,9628.718142
23768.932656,-1895.115499,1761.117434,10432.706536
23768.935176,899.701298,-3139.383251,8652.446522
23768.937697,-937.986459,-229.710970,9494.720077
23768.940218,306.281293,3235.096155,10413.563955
23768.942738,-1186.840010,-2469.392923,8805.587168
23768.945259,669.990328,1684.547110,9877.571693
23768.947779,-976.271621,-2584.248408,9054.440718
23768.950300,-1014.556782,6987.041992,11274.980091
23768.952821,2201.396792,-4077.369710,7886.743290
23768.955341,-153.140646,-1665.404530,8920.442653
23768.957862,-153.140646,12078.968485,12997.812363
23768.960383,-803.988394,-440.279358,9111.868461
23768.962903,210.568389,-7733.602643,6853.043926
23768.965424,-1971.685822,13495.519464,13725.230434
23768.967945,2220.539373,-3981.656806,8135.596840
23768.970465,1971.685822,-5723.631659,7293.323285
23768.972986,-2411.965181,11562.118803,12978.669782
23768.975506,1607.976787,-4651.647134,8078.169098
23768.978027,-363.709035,-2775.674216,8269.594906
23768.980548,-1282.552914,9686.145885,12480.962682
23768.983068,1627.119368,-4326.223261,8078.169098
23768.985589,133.998066,-937.986459,8882.157491
23768.988110,153.140646,7427.321350,11447.263318
23768.990630,918.843878,-4460.221326,7905.885870
23768.993151,210.568389,-2890.529701,8422.735552
23768.995671,172.283227,5723.631659,10911.271056
23768.998192,-114.855485,-459.421939,9207.581365
23769.000713,287.138712,-76.570323,9111.868461
23769.003233,-976.271621,2584.248408,10145.567824
23769.005754,1435.693560,-727.418070,9131.011042
23769.008275,-1722.832272,535.992262,9628.718142
23769.010795,1493.121302,4421.936165,10490.134278
23769.013316,19.142581,-8690.731683,7255.038123
23769.015836,-2813.959378,9418.149754,12653.245909
23769.018357,210.568389,-2986.242605,8595.018779
23769.020882,210.568389,-8786.444587,6738.188442
23769.023407,-765.703232,7274.180704,11830.114934
23769.025932,-363.709035,5245.067139,11236.694930
23769.028457,2239.681954,-13361.521398,5283.352301
23769.030982,-3809.373579,8901.300072,12270.394293
23769.033507,-842.273555,2679.961312,10624.132344
23769.036033,1607.976787,-10011.569758,6221.338760
23769.038558,-2009.970984,8556.733618,12059.825904
23769.041083,-229.710970,-133.998066,9762.716208
23769.043608,995.414202,-5934.200048,7408.178770
23769.046133,-1091.127106,4709.074877,11045.269122
23769.048658,-76.570323,-210.568389,9647.860723
23769.051183,-689.132909,-3311.666478,8499.305875
23769.053708,-842.273555,3043.670347,10604.989763
23769.056233,-133.998066,1071.984525,9973.284597
23769.058758,-1129.412267,-2029.113565,9111.868461
23769.061283,-19.142581,-669.990328,9456.434915
23769.063808,-325.423874,210.568389,9801.001370
23769.066333,401.994197,1225.125171,9801.001370
23769.068858,-1148.554848,-880.558717,9131.011042
23769.071384,842.273555,650.847747,9552.147819
23769.073909,-1952.543242,-1052.841944,9552.147819
23769.076434,153.140646,6183.053598,11045.269122
23769.078959,2048.256146,-7121.040058,6987.041992
23769.081484,-823.130974,5187.639397,10892.128475
23769.084009,267.996131,6967.899411,11485.548480
23769.086534,803.988394,-7025.327154,6833.901346
23769.089059,-440.279358,-1914.258080,8690.731683
23769.091584,-2201.396792,12595.818166,13418.949141
23769.094109,3924.229064,-9035.298138,6451.049730
23769.096634,344.566454,899.701298,9379.864592
23769.099159,-1378.265818,10049.854920,12461.820101
23769.101684,1531.406464,-9245.866526,6508.477472
23769.104209,-899.701298,3196.810994,10030.712339
23769.106734,-669.990328,6202.196179,11523.833642
23769.109260,1397.408398,-5685.346498,7561.319416
23769.111785,-114.855485,3426.521963,10298.708470
23769.114310,191.425808,3598.805190,10470.991698
23769.116835,555.134843,-3369.094221,8059.026517
23769.119360,-114.855485,401.994197,9303.294269
23769.121889,861.416136,4345.365842,10470.991698
23769.124417,478.564520,-1741.974853,8997.012976
23769.126946,38.285162,2163.111630,9781.858789
23769.129475,-899.701298,1186.840010,9820.143950
23769.132004,1837.687757,133.998066,9207.581365
23769.134533,-803.988394,-1761.117434,9035.298138
23769.137062,-784.845813,6872.186507,11332.407834
23769.139590,1684.547110,-7101.897477,7408.178770
23769.142119,-3024.527766,421.136778,9973.284597
23769.144648,-1033.699363,9494.720077,12557.533005
23769.147177,861.416136,-14471.791085,5034.498750
23769.149706,1895.115499,-6661.618118,7274.180704
23769.152235,-2431.107762,13533.804626,13878.371080
23769.154763,957.129040,-9073.583299,6929.614250
23769.157292,-133.998066,-3388.236802,8346.165229
23769.159821,-2526.820666,11389.835576,13284.951075
23769.162350,1646.261949,-7905.885870,7101.897477
23769.164879,-842.273555,-1282.552914,8729.016845
23769.167408,-1167.697429,7159.325219,12002.398162
23769.169937,631.705166,-5608.776174,7829.315547
23769.172465,-957.129040,478.564520,9628.718142
23769.174994,-1014.556782,2871.387120,10643.274925
23769.177523,76.570323,-3081.955509,8786.444587
23769.180052,-363.709035,1225.125171,9858.429112
23769.182581,-1110.269686,1014.556782,9992.427178
23769.185110,-727.418070,-2297.109696,9207.581365
23769.187638,-593.420005,1531.406464,10011.569758
23769.190167,-382.851616,-363.709035,9590.432981
23769.192696,325.423874,-57.427742,9265.009107
23769.195225,-995.414202,210.568389,9686.145885
23769.197754,-1914.258080,2258.824534,10260.423309
23769.200283,2890.529701,-555.134843,8997.012976
23769.202811,-976.271621,-4632.504554,8154.739421
23769.205340,229.710970,12174.681389,12825.529136
23769.207869,1493.121302,-7752.745224,6910.471669
23769.210398,229.710970,708.275490,9379.864592
23769.212927,-2239.681954,11600.403965,12921.242040
23769.215456,612.562586,-1799.402595,8882.157491
23769.217984,2660.818731,-7006.184573,6910.471669
23769.220513,-2239.681954,12002.398162,13170.095590
23769.223046,1244.267752,-3751.945837,8269.594906
23769.225578,-593.420005,-3598.805190,8039.883936
23769.228110,-1033.699363,9073.583299,12193.823970
23769.230643,1416.550979,-4326.223261,8154.739421
23769.233175,57.427742,382.851616,9207.581365
23769.235708,382.851616,5168.496816,10892.128475
23769.238240,976.271621,-3388.236802,8307.880067
23769.240772,-1091.127106,2852.244539,10049.854920
23769.243305,-133.998066,2833.101958,10758.130410
23769.245837,1607.976787,-765.703232,8977.870395
23769.248370,114.855485,-382.851616,9245.866526
23769.250902,-401.994197,4421.936165,10566.704602
23769.253434,38.285162,-2182.254211,8767.302006
23769.255967,1244.267752,1952.543242,9647.860723
23769.258499,-650.847747,-1512.263883,9245.866526
23769.261032,-880.558717,5130.211654,10968.698798
23769.263564,1397.408398,-4804.787781,8059.026517
23769.266096,-2641.676150,-1990.828403,9341.579430
23769.268629,-1110.269686,11006.983960,12921.242040
23769.271161,708.275490,-13591.232368,5321.637462
23769.273694,-38.285162,4211.367776,10796.415571
23769.276226,-2622.533570,13782.658176,13840.085918
23769.278758,421.136778,-6661.618118,7752.745224
23769.281291,823.130974,-6029.912952,7580.461997
23769.283823,-2718.246474,11523.833642,13342.378818
23769.286356,1416.550979,-5685.346498,7791.030386
23769.288888,-631.705166,-3311.666478,8212.167163
23769.291420,-1282.552914,7446.463931,11887.542677
23769.293953,612.562586,-4421.936165,8231.309744
23769.296485,-1225.125171,-555.134843,9265.009107
23769.299018,-669.990328,3522.234867,10738.987829
23769.301550,555.134843,-3809.373579,8518.448456
23769.304082,-669.990328,1512.263883,9973.284597
23769.306615,-823.130974,593.420005,9954.142016
23769.309147,535.992262,-1914.258080,9035.298138
23769.311680,-229.710970,-1359.123237,9092.725880
23769.314212,-248.853550,3101.098090,10566.704602
23769.316744,-823.130974,-1569.691626,9073.583299
23769.319277,746.560651,803.988394,9360.722011
23769.321809,-1588.834206,-1895.115499,9303.294269
23769.324345,-612.562586,7618.747158,11523.833642
23769.326880,2373.680019,-5895.914886,7312.465866
23769.329415,-114.855485,382.851616,9303.294269
23769.331950,-401.994197,11485.548480,12787.243974
23769.334486,1684.547110,-11447.263318,5551.348432
23769.337021,-1129.412267,4996.213589,10758.130410
23769.339556,-2067.398726,7618.747158,13533.804626
23769.342092,2871.387120,-5455.635528,7561.319416
23769.344627,1454.836141,-3139.383251,8173.882002
23769.347162,-1741.974853,10222.138147,12614.960747
23769.349697,1359.123237,-5589.633594,7580.461997
23769.352233,-708.275490,-823.130974,8786.444587
23769.354768,-612.562586,6795.616184,11638.689126
23769.357303,1473.978722,-4077.369710,8154.739421
23769.359839,-210.568389,1569.691626,9628.718142
23769.362374,-248.853550,4938.785846,10834.700733
23769.364909,669.990328,-3866.801322,8078.169098
23769.367444,267.996131,3598.805190,10088.140082
23769.369980,-325.423874,3043.670347,10241.280728
23769.372515,937.986459,-440.279358,9284.151688
23769.375050,-172.283227,-133.998066,9111.868461
23769.377586,746.560651,2718.246474,10107.282662
23769.380121,-1052.841944,-2105.683888,9054.440718
23769.382656,497.707101,5206.781978,10662.417506
23769.385191,708.275490,-7523.034254,7408.178770
23769.387727,-2794.816797,5015.356170,11255.837510
23769.390262,-574.277424,3426.521963,10815.558152
23769.392797,708.275490,-12500.105262,5723.631659
23769.395333,-1895.115499,11810.972354,13304.093656
23769.397868,306.281293,-1205.982590,9092.725880
23769.400403,1244.267752,-9494.720077,6546.762634
23769.402938,-4555.934230,11428.120738,10719.845248
23769.405474,-2143.969050,7063.612315,12078.968485
23769.408009,1684.547110,-9456.434915,6451.049730
23769.410544,-1703.689691,3560.520029,10490.134278
23769.413080,-287.138712,4785.645200,11294.122672
23769.415615,727.418070,-6508.477472,7446.463931
23769.418150,-1703.689691,2718.246474,10298.708470
23769.420685,-440.279358,1971.685822,10394.421374
23769.423221,133.998066,-4862.215523,8154.739421
23769.425759,-937.986459,2699.103893,10451.849117
23769.428297,-995.414202,-306.281293,9877.571693
23769.430835,593.420005,-2737.389054,8652.446522
23769.433373,-842.273555,1148.554848,9896.714274
23769.435911,38.285162,2411.965181,10279.565890
23769.438449,-1339.980656,-995.414202,9322.436850
23769.440987,114.855485,2182.254211,9820.143950
23769.443525,689.132909,-4096.512291,8346.165229
23769.446063,-1569.691626,6948.756830,11485.548480
23769.448601,2316.252277,-114.855485,9111.868461
23769.451139,650.847747,-7580.461997,6891.329088
23769.453677,-976.271621,14376.078181,13744.373014
23769.456215,497.707101,-6431.907149,7312.465866
23769.458753,76.570323,-3273.381317,8231.309744
23769.461291,-1837.687757,13055.240106,13342.378818
23769.463829,3656.232933,-8154.739421,6661.618118
23769.466367,2431.107762,-8173.882002,6527.620053
23769.468905,-1703.689691,8690.731683,12136.396227
23769.471443,880.558717,153.140646,9686.145885
23769.473981,248.853550,-5245.067139,7561.319416
23769.476519,-1167.697429,6757.331022,11408.978157
23769.479058,1473.978722,76.570323,9399.007173
23769.481596,612.562586,-2928.814862,8231.309744
23769.484134,-727.418070,5666.203917,10949.556218
23769.486672,593.420005,191.425808,9226.723946
23769.489210,172.283227,-382.851616,8863.014910
23769.491748,-650.847747,3254.238736,10528.419440
23769.494286,1014.556782,363.709035,9399.007173
23769.496824,-133.998066,-689.132909,9150.153622
23769.499362,-459.421939,3598.805190,10241.280728
23769.501900,1818.545176,-1933.400661,8920.442653
23769.504438,-2584.248408,-612.562586,9399.007173
23769.506976,-19.142581,7503.891674,11657.831707
23769.509514,229.710970,-12500.105262,5915.057467
23769.512052,-1378.265818,7714.460062,12002.398162
23769.514590,-842.273555,2565.105827,10490.134278
23769.517128,2373.680019,-11772.687192,5627.918755
23769.519666,-2756.531635,11389.835576,12921.242040
23769.522204,-765.703232,-1646.261949,9513.862658
23769.524742,1665.404530,-9016.155557,6719.045861
23769.527283,-2545.963246,9915.856854,12710.673651
23769.529823,19.142581,6719.045861,11676.974288
23769.532364,1148.554848,-7771.887805,7063.612315
23769.534904,-1052.841944,1646.261949,9801.001370
23769.537444,-842.273555,4192.225195,11064.411702
23769.539985,-114.855485,-4709.074877,8346.165229
23769.542525,-1033.699363,803.988394,9896.714274
23769.545066,-382.851616,1856.830338,10356.136213
23769.547606,-516.849682,-3369.094221,8709.874264
23769.550147,-19.142581,210.568389,9513.862658
23769.552687,-459.421939,727.418070,9915.856854
23769.555228,210.568389,-650.847747,9437.292334
23769.557768,-1244.267752,401.994197,9590.432981
23769.560309,765.703232,114.855485,9494.720077
23769.562849,-784.845813,-3675.375514,8671.589102
23769.565390,-1301.695494,8269.594906,11676.974288
23769.567930,2928.814862,-4134.797453,7810.172966
23769.570470,267.996131,-2565.105827,8365.307810
23769.573011,-784.845813,13055.240106,13342.378818
23769.575551,1454.836141,-10126.425243,5972.485210
23769.578092,-689.132909,1933.400661,9896.714274
23769.580632,-1416.550979,9686.145885,12423.534939
23769.583173,3962.514226,-9839.286531,5991.627790
23769.585713,-459.421939,5857.629725,10892.128475
23769.588254,-1110.269686,5608.776174,11332.407834
23769.590794,669.990328,-7886.743290,6929.614250
23769.593335,-344.566454,-2239.681954,8461.020714
23769.595875,-344.566454,5340.780043,10949.556218
23769.598415,1416.550979,-1071.984525,8939.585234
23769.600956,440.279358,401.994197,9265.009107
23769.603496,19.142581,3120.240670,10145.567824
23769.606037,574.277424,-114.855485,9073.583299
23769.608577,-689.132909,2354.537438,9896.714274
23769.611118,267.996131,478.564520,9628.718142
23769.613658,1244.267752,344.566454,9399.007173
23769.616199,38.285162,1320.838075,9762.716208
23769.618739,401.994197,2182.254211,9820.143950
23769.621280,1473.978722,-2947.957443,8518.448456
23769.623820,-2909.672282,1971.685822,10394.421374
23769.626360,-1741.974853,9973.284597,12538.390424
23769.628903,976.271621,-9131.011042,6757.331022
23769.631445,-516.849682,-1646.261949,9150.153622
23769.633987,-1914.258080,11428.120738,13265.808494
23769.636529,1875.972918,-11810.972354,5723.631659
23769.639072,-1435.693560,3560.520029,10528.419440
23769.641614,-3177.668413,7733.602643,12519.247843
23769.644156,2316.252277,-11830.114934,5838.487144
23769.646698,-861.416136,3924.229064,10547.562021
23769.649240,-363.709035,5647.061336,11504.691061
23769.651783,784.845813,-7293.323285,7025.327154
23769.654325,-1473.978722,2392.822600,10164.710405
23769.656867,-1263.410333,4115.654872,10872.985894
23769.659409,-784.845813,-1588.834206,9303.294269
23769.661952,-803.988394,-1531.406464,9150.153622
23769.664494,-555.134843,861.416136,9992.427178
23769.667036,-382.851616,-1990.828403,9265.009107
23769.669578,-325.423874,1722.832272,9877.571693
23769.672120,-708.275490,-1454.836141,9207.581365
23769.674663,57.427742,669.990328,9647.860723
23769.677205,-2124.826469,38.285162,9839.286531
23769.679747,-382.851616,2220.539373,9992.427178
23769.682289,2718.246474,-3445.664544,8193.024582
23769.684832,-1435.693560,2545.963246,10183.852986
23769.687374,1914.258080,6776.473603,11102.696864
23769.689916,1378.265818,-6527.620053,7235.895542
23769.692458,153.140646,-1531.406464,8633.303941
23769.695000,-2392.822600,12672.388490,13495.519464
23769.697543,1799.402595,-10088.140082,6259.623922
23769.700085,842.273555,2756.531635,9743.573627
23769.702627,-1416.550979,9341.579430,12155.538808
23769.705169,2182.254211,-8575.876198,6585.047795
23769.707712,-1014.556782,2909.672282,10222.138147
23769.710254,-133.998066,5570.491013,11370.692995
23769.712796,1454.836141,-5187.639397,7599.604578
23769.715338,-459.421939,2411.965181,9954.142016
23769.717880,555.134843,3503.092286,10375.278794
23769.720423,861.416136,-19.142581,9303.294269
23769.722965,421.136778,803.988394,9169.296203
23769.725507,-746.560651,3273.381317,10107.282662
23769.728049,-153.140646,-593.420005,9456.434915
23769.730594,880.558717,1129.412267,9552.147819
23769.733138,-76.570323,363.709035,9533.005238
23769.735682,1244.267752,2909.672282,9820.143950
23769.738226,746.560651,-3751.945837,8384.450390
23769.740770,-2737.389054,3177.668413,10700.702667
23769.743314,746.560651,2737.389054,10336.993632
23769.745858,-1301.695494,-10662.417506,6604.190376
23769.748402,-1588.834206,11791.829773,13265.808494
23769.750946,76.570323,-4575.076811,12251.251712
23769.753490,2239.681954,-12634.103328,5398.207786
23769.756034,-2029.113565,7408.178770,11696.116869
23769.758578,-2220.539373,3905.086483,11274.980091
23769.761122,2220.539373,-11294.122672,6240.481341
23769.763666,-1301.695494,6738.188442,11600.403965
23769.766210,325.423874,2335.394858,10298.708470
23769.768754,708.275490,-6661.618118,7101.897477
23769.771298,-1684.547110,3847.658741,10681.560086
23769.773842,-306.281293,2009.970984,10432.706536
23769.776386,-401.994197,-4058.227130,8307.880067
23769.778930,-708.275490,1263.410333,10049.854920
23769.781474,-976.271621,191.425808,10088.140082
23769.784018,421.136778,-1339.980656,9379.864592
23769.786562,325.423874,-478.564520,9092.725880
23769.789106,-669.990328,823.130974,9934.999435
23769.791650,-612.562586,1186.840010,9915.856854
23769.794194,-861.416136,-2967.100024,8882.157491
23769.796738,-2201.396792,3579.662610,10643.274925
23769.799282,2871.387120,1837.687757,9571.290400
23769.801826,401.994197,-7561.319416,7121.040058
23769.804370,-95.712904,13686.945272,13284.951075
23769.806914,937.986459,-5781.059402,7465.606512
23769.809458,325.423874,-2833.101958,8384.450390
23769.812002,-2909.672282,13150.953010,13610.374949
23769.814546,1741.974853,-9475.577496,9743.573627
23769.817090,3311.666478,-7637.889739,6431.907149
23769.819634,-1875.972918,11179.267187,12500.105262
23769.822178,535.992262,-1091.127106,9073.583299
23769.824722,57.427742,-5283.352301,7618.747158
23769.827266,-1416.550979,6833.901346,11581.261384
23769.829810,995.414202,306.281293,9437.292334
23769.832355,612.562586,-2756.531635,8212.167163
23769.834901,210.568389,3790.230998,10336.993632
23769.837446,574.277424,1837.687757,9839.286531
23769.839991,746.560651,363.709035,8977.870395
23769.842537,-937.986459,1301.695494,9724.431046
23769.845082,-937.986459,2009.970984,10279.565890
23769.847627,57.427742,1627.119368,9934.999435
23769.850173,1761.117434,-1244.267752,8614.161360
23769.852718,-1435.693560,1359.123237,9915.856854
23769.855263,535.992262,5838.487144,10911.271056
23769.857808,363.709035,-11026.126541,6470.192310
23769.860354,-3254.238736,8863.014910,12595.818166
23769.862899,-248.853550,459.421939,9934.999435
23769.865444,1110.269686,-12595.818166,5627.918755
23769.867990,-2373.680019,14184.652373,14050.654307
23769.870535,918.843878,-3771.088418,8135.596840
23769.873080,593.420005,-7331.608446,7044.469734
23769.875626,-4594.219392,11830.114934,13744.373014
23769.878171,555.134843,-7255.038123,7676.174901
23769.880716,2009.970984,-9456.434915,6297.909083
23769.883262,-746.560651,4651.647134,10834.700733
23769.885807,-344.566454,4249.652938,11064.411702
23769.888352,248.853550,-4900.500685,7982.456194
23769.890898,-1339.980656,363.709035,9667.003304
23769.893443,-1397.408398,1856.830338,10528.419440
23769.895988,-1091.127106,-2316.252277,9092.725880
23769.898533,-363.709035,-1933.400661,9245.866526
23769.901079,-133.998066,1952.543242,10126.425243
23769.903624,-382.851616,-19.142581,9437.292334
23769.906169,95.712904,-1454.836141,8882.157491
23769.908715,-1875.972918,899.701298,10279.565890
23769.911260,-1493.121302,5991.627790,11370.692995
23769.913805,3503.092286,-4747.360038,7657.032320
23769.916351,-784.845813,-593.420005,9092.725880
23769.918896,995.414202,12059.825904,12634.103328
23769.921441,1435.693560,-12691.531070,5225.924558
23769.923987,-650.847747,6814.758765,11389.835576
23769.926532,-2163.111630,8173.882002,12136.396227
23769.929077,1780.260014,-12212.966550,5742.774240
23769.931623,-631.705166,9399.007173,11964.113000
23769.934169,918.843878,3828.516160,10222.138147
23769.936715,2392.822600,-7791.030386,6546.762634
23769.939261,-1244.267752,6738.188442,11351.550414
23769.941807,535.992262,1110.269686,10107.282662
23769.944353,1512.263883,-3771.088418,8250.452325
23769.946900,-76.570323,746.560651,9418.149754
23769.949446,267.996131,4670.789715,10585.847182
23769.951992,937.986459,-1282.552914,8614.161360
23769.954538,210.568389,2124.826469,9418.149754
23769.957084,-899.701298,2928.814862,10356.136213
23769.959631,-114.855485,-1110.269686,9245.866526
23769.962177,229.710970,1033.699363,9609.575562
23769.964723,1397.408398,1263.410333,9686.145885
23769.967269,-918.843878,1091.127106,9590.432981
23769.969815,1014.556782,2699.103893,9839.286531
23769.972361,-957.129040,-6757.331022,7791.030386
23769.974908,-3062.812928,2316.252277,10758.130410
23769.977454,-382.851616,5608.776174,11466.405899
23769.980000,1071.984525,-12442.677520,5819.344563
23769.982546,-1225.125171,8805.587168,12327.822035
23769.985092,-401.994197,2392.822600,10011.569758
23769.987639,899.701298,-9609.575562,6355.336826
23769.990185,-3866.801322,8250.452325,12461.820101
23769.992731,-689.132909,-1493.121302,9590.432981
23769.995277,1397.408398,-6183.053598,7523.034254
23769.997823,-631.705166,6106.483275,11236.694930
23770.000369,440.279358,535.992262,9609.575562
23770.002916,-669.990328,-3541.377448,8250.452325
23770.005462,-1454.836141,2411.965181,10375.278794
23770.008008,-1071.984525,1435.693560,10279.565890
23770.010554,-1148.554848,-2852.244539,9188.438784
23770.013100,478.564520,-382.851616,9475.577496
23770.015646,421.136778,555.134843,9552.147819
23770.018193,-593.420005,401.994197,9552.147819
23770.020739,-937.986459,650.847747,9533.005238
23770.023285,-650.847747,-2545.963246,9169.296203
23770.025831,-2297.109696,3330.809059,10777.272990
23770.028377,2584.248408,803.988394,9456.434915
23770.030924,267.996131,-6431.907149,7408.178770
23770.033470,-153.140646,13763.515595,13131.810429
23770.036017,880.558717,-6183.053598,7235.895542
23770.038564,1569.691626,-11198.409768,5627.918755
23770.041111,-1799.402595,9781.858789,12538.390424
23770.043658,-248.853550,669.990328,9781.858789
23770.046206,3139.383251,-7121.040058,6661.618118
23770.048753,-1378.265818,9934.999435,12098.111066
23770.051300,612.562586,133.998066,9379.864592
23770.053847,-191.425808,-4575.076811,7925.028451
23770.056394,-612.562586,4192.225195,10872.985894
23770.058941,765.703232,823.130974,9839.286531
23770.061489,248.853550,-727.418070,8824.729749
23770.064036,689.132909,2220.539373,9590.432981
23770.066583,995.414202,1684.547110,9552.147819
23770.069130,-535.992262,2277.967115,9705.288466
23770.071677,-497.707101,1397.408398,9781.858789
23770.074224,995.414202,-957.129040,9207.581365
23770.076772,880.558717,842.273555,9839.286531
23770.079319,306.281293,3713.660675,10145.567824
23770.081866,1818.545176,-3349.951640,8039.883936
23770.084413,-3349.951640,1473.978722,10145.567824
23770.086960,57.427742,6585.047795,11562.118803
23770.089507,555.134843,-14031.511726,5589.633594
23770.092055,-1531.406464,8843.872330,12653.245909
23770.094602,-440.279358,2450.250342,10585.847182
23770.097149,2277.967115,-12844.671717,5245.067139
23770.099696,-2813.959378,12519.247843,13112.667848
23770.102243,-3426.521963,10011.569758,13016.954944
23770.104790,1856.830338,-11906.685258,6125.625856
23770.107338,57.427742,1435.693560,10068.997501
23770.109885,-612.562586,6680.760699,11983.255581
23770.112432,57.427742,-4785.645200,7867.600709
23770.114979,-1473.978722,287.138712,9207.581365
23770.117526,-631.705166,1895.115499,10279.565890
23770.120073,-784.845813,-1703.689691,9284.151688
23770.122621,-803.988394,-172.283227,9839.286531
23770.125168,38.285162,-2488.535504,9226.723946
23770.127715,-765.703232,1186.840010,9992.427178
23770.130262,-823.130974,937.986459,9628.718142
23770.132809,401.994197,-1646.261949,8537.591037
23770.135356,-229.710970,-2316.252277,9035.298138
23770.137888,-2565.105827,4632.504554,11370.692995
23770.140419,3196.810994,-1225.125171,8920.442653
23770.142950,153.140646,-6049.055533,7542.176835
23770.145481,-535.992262,14912.070443,13533.804626
23770.148012,1359.123237,-7216.752962,6738.188442
23770.150544,210.568389,-1818.545176,8480.163294
23770.153075,-2565.105827,13418.949141,13820.943338
23770.155606,1722.832272,-10317.851051,6546.762634
23770.158137,880.558717,1378.265818,9609.575562
23770.160668,-1301.695494,10088.140082,12232.109131
23770.163200,2450.250342,-7293.323285,6642.475538
23770.165731,-401.994197,-5723.631659,7389.036189
23770.168262,-1148.554848,6240.481341,11447.263318
23770.170793,727.418070,1052.841944,9934.999435
23770.173325,976.271621,-3369.094221,8039.883936
23770.175856,382.851616,3866.801322,10336.993632
23770.178387,1052.841944,3637.090352,10088.140082
23770.180918,-114.855485,-1665.404530,8288.737486
23770.183449,-976.271621,2239.681954,10030.712339
23770.185981,19.142581,2450.250342,10317.851051
23770.188512,1378.265818,-3751.945837,8499.305875
23770.191043,-95.712904,4230.510357,10509.276859
23770.193574,1416.550979,669.990328,9341.579430
23770.196105,-2354.537438,-3407.379382,8422.735552
23770.198637,-2316.252277,7484.749093,11944.970419
23770.201168,306.281293,-3713.660675,8843.872330
23770.203699,478.564520,-6948.756830,7714.460062
23770.206230,-1933.400661,11026.126541,13265.808494
23770.208762,1052.841944,-6814.758765,7255.038123
23770.211293,-459.421939,-1071.984525,8824.729749
23770.213824,-3215.953574,8767.302006,12557.533005
23770.216355,1167.697429,-8729.016845,7197.610381
23770.218886,210.568389,-133.998066,9724.431046
23770.221418,-899.701298,5704.489078,11600.403965
23770.223949,631.705166,-3962.514226,8001.598774
23770.226480,-1493.121302,-229.710970,9150.153622
23770.229011,-1454.836141,2182.254211,10222.138147
23770.231542,-1110.269686,-497.707101,9820.143950
23770.234074,-918.843878,-3139.383251,9226.723946
23770.236605,650.847747,1225.125171,10202.995566
23770.239139,191.425808,-861.416136,9303.294269
23770.241674,-114.855485,0.000000,9169.296203
23770.244208,-2029.113565,1703.689691,9858.429112
23770.246742,1071.984525,-401.994197,9303.294269
23770.249277,-1856.830338,-3369.094221,9016.155557
23770.251811,-344.566454,8997.012976,12136.396227
23770.254346,2813.959378,-7503.891674,6853.043926
23770.256880,-363.709035,3388.236802,9934.999435
23770.259414,-555.134843,10107.282662,12212.966550
23770.261949,382.851616,-3809.373579,7925.028451
23770.264483,401.994197,-5283.352301,8001.598774
23770.267018,-1627.119368,11083.554283,13131.810429
23770.269552,2967.100024,-5321.637462,7523.034254
23770.272086,1110.269686,-880.558717,8595.018779
23770.274621,-1301.695494,8499.305875,11810.972354
23770.277155,-19.142581,-3445.664544,8346.165229
23770.279690,-478.564520,-995.414202,8997.012976
23770.282224,440.279358,3713.660675,10643.274925
23770.284758,1416.550979,-937.986459,9092.725880
23770.287293,1225.125171,2029.113565,9628.718142
23770.289827,38.285162,3177.668413,9839.286531
23770.292362,-363.709035,-287.138712,9284.151688
23770.294896,-153.140646,746.560651,9552.147819
23770.297430,287.138712,-133.998066,9743.573627
23770.299965,1684.547110,2297.109696,10030.712339
23770.302499,1416.550979,-2622.533570,8575.876198
23770.305034,-3158.525832,3254.238736,10413.563955
23770.307568,306.281293,3043.670347,10260.423309
23770.310102,-1263.410333,-10604.989763,6565.905214
23770.312637,-1167.697429,10815.558152,13380.663979
23770.315171,421.136778,-4192.225195,8595.018779
23770.317706,1512.263883,-8346.165229,6833.901346
23770.320243,-2450.250342,12806.386555,13150.953010
23770.322779,287.138712,-6125.625856,7503.891674
23770.325316,1761.117434,-10777.272990,6297.909083
23770.327853,-880.558717,5532.205851,11408.978157
23770.330390,-306.281293,2316.252277,10662.417506
23770.332927,-133.998066,-5206.781978,7657.032320
23770.335464,-1454.836141,3369.094221,10279.565890
23770.338001,-287.138712,229.710970,9743.573627
23770.340538,-842.273555,-2411.965181,8958.727814
23770.343075,-1301.695494,995.414202,10279.565890
23770.345612,823.130974,-1684.547110,9418.149754
23770.348149,-38.285162,-1741.974853,9226.723946
23770.350686,-287.138712,2105.683888,10011.569758
23770.353223,-1014.556782,306.281293,9284.151688
23770.355760,344.566454,-1014.556782,9284.151688
23770.358297,-803.988394,-3790.230998,8863.014910
23770.360834,-631.705166,8441.878133,12098.111066
23770.363371,2775.674216,-4957.928427,7695.317482
23770.365908,-57.427742,-861.416136,8729.016845
23770.368444,-689.132909,12270.394293,12768.101394
23770.370981,1435.693560,-9322.436850,5972.485210
23770.373518,-325.423874,2220.539373,10126.425243
23770.376055,-1110.269686,7714.460062,12212.966550
23770.378592,3483.949706,-8805.587168,6508.477472
23770.381129,-421.136778,5149.354235,10604.989763
23770.383666,-1473.978722,6010.770371,11255.837510
23770.386203,535.992262,-5742.774240,7369.893608
23770.388740,363.709035,-3522.234867,8135.596840
23770.391277,114.855485,4268.795518,10738.987829
23770.393814,1110.269686,1665.404530,9934.999435
23770.396351,1569.691626,-746.560651,8767.302006
23770.398888,-976.271621,2794.816797,9915.856854
23770.401425,-1320.838075,3158.525832,10164.710405
23770.403962,497.707101,-1091.127106,8729.016845
23770.406499,1052.841944,-976.271621,9284.151688
23770.409036,421.136778,5206.781978,11217.552349
23770.411572,2143.969050,-3981.656806,8078.169098
23770.414109,-3062.812928,-497.707101,9341.579430
23770.416646,-861.416136,9762.716208,12155.538808
23770.419183,153.140646,-14356.935600,7676.174901
23770.421706,842.273555,-6948.756830,7657.032320
23770.424228,-2431.107762,12978.669782,14031.511726
23770.426751,1493.121302,-9035.298138,6776.473603
23770.429273,-555.134843,-1244.267752,8786.444587
23770.431796,-3598.805190,10758.130410,12806.386555
23770.434318,1512.263883,-9647.860723,6604.190376
23770.436841,325.423874,-535.992262,9399.007173
23770.439363,-153.140646,6355.336826,11887.542677
23770.441886,325.423874,-4594.219392,8116.454259
23770.444408,-1588.834206,363.709035,9399.007173
23770.446931,-1244.267752,2507.678085,10432.706536
23770.449453,-765.703232,-3292.523898,8729.016845
23770.451976,325.423874,-2718.246474,8977.870395
23770.454498,708.275490,1397.408398,10126.425243
23770.457021,-210.568389,-631.705166,9705.288466
23770.459543,-708.275490,306.281293,9207.581365
23770.462066,-2718.246474,-631.705166,9379.864592
23770.464588,-1205.982590,4441.078746,10758.130410
23770.467111,3464.807125,-4402.793584,8001.598774
23770.469633,-382.851616,-95.712904,9590.432981
23770.472156,1129.412267,10164.710405,12212.966550
23770.474678,976.271621,-11217.552349,5493.920690
23770.477201,-1052.841944,7791.030386,11428.120738
23770.479723,-1550.549045,6948.756830,11447.263318
23770.482246,1512.263883,-7618.747158,7178.467800
23770.484768,1397.408398,-1550.549045,8690.731683
23770.487291,-1473.978722,10222.138147,12480.962682
23770.489813,2067.398726,-6049.055533,7216.752962
23770.492336,-803.988394,516.849682,9188.438784
23770.494858,-421.136778,6336.194245,11600.403965
23770.497381,976.271621,-3809.373579,8193.024582
23770.499903,267.996131,937.986459,9418.149754
23770.502426,555.134843,4766.502619,10643.274925
23770.504948,593.420005,-1033.699363,8767.302006
23770.507471,-669.990328,1205.982590,9456.434915
23770.509993,172.283227,3292.523898,10049.854920
23770.512516,-440.279358,-1244.267752,9131.011042
23770.515038,1473.978722,1933.400661,9896.714274
23770.517561,976.271621,-2756.531635,8786.444587
23770.520083,-3043.670347,3407.379382,10528.419440
23770.522610,95.712904,2565.105827,10030.712339
23770.525137,-1186.840010,-10222.138147,6604.190376
23770.527663,-1301.695494,11332.407834,13304.093656
23770.530190,631.705166,-5034.498750,8327.022648
23770.532717,1569.691626,-7848.458128,7101.897477
23770.535244,-2737.389054,12902.099459,13418.949141
23770.537771,650.847747,-6948.756830,7293.323285
23770.540297,-401.994197,-3388.236802,8327.022648
23770.542824,-2622.533570,9513.862658,12806.386555
23770.545351,-631.705166,-6049.055533,10643.274925
23770.547878,172.283227,-5723.631659,7503.891674
23770.550404,-1493.121302,2584.248408,10126.425243
23770.552931,-1129.412267,1416.550979,10202.995566
23770.555458,-669.990328,-2756.531635,8863.014910
23770.557985,-153.140646,-1186.840010,9418.149754
23770.560512,-210.568389,1263.410333,10356.136213
23770.563038,-593.420005,-325.423874,9667.003304
23770.565565,344.566454,-1780.260014,8652.446522
23770.568092,-2507.678085,918.843878,9858.429112
23770.570619,-746.560651,4536.791650,10585.847182
23770.573145,2545.963246,-7810.172966,7063.612315
23770.575672,-1263.410333,6336.194245,11466.405899
23770.578199,-19.142581,14758.929797,13706.087853
23770.580726,1301.695494,-10088.140082,5876.772306
23770.583252,-574.277424,2048.256146,9533.005238
23770.585779,-2431.107762,12385.249778,13246.665914
23770.588306,2277.967115,-11562.118803,5895.914886
23770.590833,-172.283227,4326.223261,10719.845248
23770.593360,-382.851616,7369.893608,11600.403965
23770.595886,2335.394858,-8537.591037,6393.621987
23770.598413,-1301.695494,5072.783912,10643.274925
23770.600940,-95.712904,4517.649069,11083.554283
23770.603467,823.130974,-4881.358104,7810.172966
23770.605993,-38.285162,3349.951640,10183.852986
23770.608520,-19.142581,3751.945837,10892.128475
23770.611047,38.285162,-344.566454,9169.296203
23770.613574,-478.564520,-76.570323,9054.440718
23770.616100,-57.427742,4153.940034,10279.565890
23770.618627,631.705166,-1512.263883,9035.298138
23770.621154,842.273555,2182.254211,10030.712339
23770.623684,1339.980656,-1339.980656,9207.581365
23770.626215,-2967.100024,440.279358,9762.716208
23770.628745,-229.710970,5283.352301,10777.272990
23770.631276,-344.566454,-11428.120738,6259.623922
23770.633806,-995.414202,8786.444587,12519.247843
23770.636337,-0.000000,-401.994197,9781.858789
23770.638867,1933.400661,-10758.130410,6144.768437
23770.641397,-1416.550979,3311.666478,10375.278794
23770.643928,-2756.531635,7657.032320,12021.540742
23770.646458,2029.113565,-10853.843314,5991.627790
23770.648989,-574.277424,3522.234867,10738.987829
23770.651519,-727.418070,4900.500685,11753.544611
23770.654050,-114.855485,-4938.785846,7963.313613
23770.656580,-1320.838075,382.851616,9475.577496
23770.659110,-1167.697429,1473.978722,10279.565890
23770.661641,-555.134843,-1761.117434,9245.866526
23770.664171,765.703232,-842.273555,9303.294269
23770.666702,363.709035,-880.558717,9571.290400
23770.669232,-1071.984525,1129.412267,10241.280728
23770.671763,-803.988394,-38.285162,9973.284597
23770.674293,555.134843,-2852.244539,8250.452325
23770.676823,-2048.256146,57.427742,9781.858789
23770.679354,535.992262,8461.020714,11772.687192
23770.681884,2890.529701,-10604.989763,6125.625856
23770.684415,-746.560651,8135.596840,11619.546546
23770.686945,-535.992262,6929.614250,11294.122672
23770.689476,2009.970984,-11600.403965,5264.209720
23770.692006,-1454.836141,10107.282662,12404.392358
23770.694536,-172.283227,1665.404530,10183.852986
23770.697067,2928.814862,-8805.587168,6489.334891
23770.699597,-1550.549045,9992.427178,12423.534939
23770.702128,593.420005,440.279358,9360.722011
23770.704658,459.421939,-5340.780043,7580.461997
23770.707189,-114.855485,765.703232,9494.720077
23770.709719,574.277424,4900.500685,10930.413637
23770.712249,2029.113565,-1454.836141,8614.161360
23770.714780,-133.998066,1244.267752,9456.434915
23770.717310,-937.986459,3445.664544,10451.849117
23770.719841,248.853550,-153.140646,8920.442653
23770.722371,-344.566454,19.142581,9092.725880
23770.724906,2029.113565,3522.234867,10375.278794
23770.727440,19.142581,-3101.098090,8786.444587
23770.729974,-440.279358,5168.496816,10834.700733
23770.732508,114.855485,-5455.635528,7848.458128
23770.735042,-3120.240670,1282.552914,10049.854920
23770.737576,-1091.127106,10356.136213,12940.384621
23770.740109,1091.127106,-7293.323285,7503.891674
23770.742643,976.271621,-4268.795518,8307.880067
23770.745177,-2335.394858,11026.126541,12978.669782
23770.747711,803.988394,-8499.305875,6814.758765
23770.750245,-1320.838075,-306.281293,9399.007173
23770.752779,-2354.537438,8212.167163,12270.394293
23770.755312,1646.261949,-7829.315547,7101.897477
23770.757846,-478.564520,-535.992262,9131.011042
23770.760380,-1110.269686,5608.776174,11523.833642
23770.762914,-38.285162,-4115.654872,8346.165229
23770.765448,-2067.398726,-1665.404530,9188.438784
23770.767982,-516.849682,2756.531635,10413.563955
23770.770516,114.855485,-38.285162,9762.716208
23770.773049,344.566454,-3311.666478,8767.302006
23770.775583,-1129.412267,3024.527766,10279.565890
23770.778117,-440.279358,-1148.554848,9131.011042
23770.780651,-2182.254211,-401.994197,9245.866526
23770.783185,2143.969050,4594.219392,10490.134278
23770.785719,1091.127106,-7255.038123,7561.319416
23770.788253,-19.142581,11160.124606,12538.390424
23770.790786,153.140646,-1665.404530,8595.018779
23770.793320,440.279358,-4498.506488,7580.461997
23770.795854,-2258.824534,11983.255581,13074.382686
23770.798388,1607.976787,-6259.623922,7503.891674
23770.800922,2967.100024,-8288.737486,6738.188442
23770.803456,-1531.406464,8518.448456,11925.827838
23770.805990,631.705166,1110.269686,9839.286531
23770.808523,287.138712,-4996.213589,7484.749093
23770.811057,-784.845813,5493.920690,10930.413637
23770.813591,1129.412267,957.129040,9762.716208
23770.816125,1359.123237,-1033.699363,8729.016845
23770.818659,-631.705166,3713.660675,10298.708470
23770.821193,-344.566454,440.279358,9533.005238
23770.823726,-38.285162,727.418070,9188.438784
23770.826263,-306.281293,1684.547110,9820.143950
23770.828800,1952.543242,1454.836141,9609.575562
23770.831336,1397.408398,-3215.953574,8633.303941
23770.833873,-3235.096155,3464.807125,10681.560086
23770.836410,191.425808,1761.117434,9954.142016
23770.838946,-1435.693560,-9379.864592,6853.043926
23770.841483,-1378.265818,10738.987829,13131.810429
23770.844020,842.273555,-5417.350366,8173.882002
23770.846556,1493.121302,-6776.473603,7465.606512
23770.849093,-2603.390989,11715.259450,13170.095590
23770.851630,574.277424,-6642.475538,7542.176835
23770.854166,-803.988394,-2871.387120,8537.591037
23770.856703,-2411.965181,9131.011042,12557.533005
23770.859240,1531.406464,-6738.188442,7542.176835
23770.861776,-363.709035,-2335.394858,8614.161360
23770.864313,-1761.117434,3541.377448,10681.560086
23770.866850,-1033.699363,1665.404530,10490.134278
23770.869386,-95.712904,-5532.205851,8001.598774
23770.871923,-555.134843,2756.531635,10413.563955
23770.874459,-267.996131,995.414202,10145.567824
23770.876996,880.558717,-4019.941968,8422.735552
23770.879533,-1856.830338,1914.258080,10145.567824
23770.882069,401.994197,2009.970984,10030.712339
23770.884606,-1359.123237,-5608.776174,7944.171032
23770.887143,-401.994197,9801.001370,12117.253646
23770.889679,2813.959378,-5589.633594,7637.889739
23770.892216,172.283227,1167.697429,9360.722011
23770.894753,-1378.265818,12155.538808,12729.816232
23770.897289,38.285162,-2182.254211,8422.735552
23770.899826,861.416136,-5168.496816,7637.889739
23770.902363,-1722.832272,10604.989763,12844.671717
23770.904899,2947.957443,-4670.789715,7944.171032
23770.907436,1339.980656,-1875.972918,8365.307810
23770.909973,-1550.549045,8212.167163,11849.257515
23770.912509,210.568389,-3311.666478,8365.307810
23770.915046,-344.566454,-19.142581,9073.583299
23770.917583,459.421939,4862.215523,10643.274925
23770.920119,1665.404530,-1186.840010,8805.587168
23770.922656,-401.994197,1378.265818,9647.860723
23770.925193,-191.425808,2679.961312,10068.997501
23770.927732,38.285162,363.709035,9341.579430
23770.930271,1378.265818,631.705166,9322.436850
23770.932810,-1110.269686,1033.699363,9992.427178
23770.935350,1646.261949,3120.240670,10279.565890
23770.937889,-574.277424,-7542.176835,7542.176835
23770.940428,-3043.670347,8231.309744,12098.111066
23770.942968,248.853550,-3311.666478,8633.303941
23770.945507,746.560651,-8250.452325,7121.040058
23770.948046,-1837.687757,11772.687192,13667.802691
23770.950585,516.849682,-6183.053598,7752.745224
23770.953125,-0.000000,-3541.377448,8154.739421
23770.955664,-3751.945837,10796.415571,12959.527202
23770.958203,-746.560651,-8135.596840,10336.993632
23770.960743,1799.402595,-8901.300072,6776.473603
23770.963282,-1205.982590,5991.627790,11504.691061
23770.965821,-631.705166,1856.830338,10336.993632
23770.968360,-421.136778,-6183.053598,7637.889739
23770.970900,-2718.246474,2450.250342,10566.704602
23770.973439,-325.423874,1837.687757,10241.280728
23770.975978,861.416136,-4594.219392,8135.596840
23770.978518,-191.425808,1378.265818,10183.852986
23770.981057,-1186.840010,3311.666478,10681.560086
23770.983596,-287.138712,-4996.213589,8001.598774
23770.986135,-2756.531635,2124.826469,10068.997501
23770.988675,2316.252277,4938.785846,10662.417506
23770.991214,2699.103893,-7771.887805,7006.184573
23770.993753,114.855485,3311.666478,10011.569758
23770.996293,-1244.267752,9954.142016,12327.822035
23770.998832,1741.974853,-10604.989763,5647.061336
23771.001371,-861.416136,6355.336826,11255.837510
23771.003910,-574.277424,4709.074877,11064.411702
23771.006450,2986.242605,-9207.581365,6470.192310
23771.008989,-1627.119368,8135.596840,11715.259450
23771.011528,76.570323,2699.103893,10298.708470
23771.014068,1110.269686,-6623.332957,6891.329088
23771.016607,-746.560651,5321.637462,10968.698798
23771.019146,1205.982590,3598.805190,10317.851051
23771.021686,1818.545176,-4192.225195,8441.878133
23771.024225,-191.425808,-784.845813,8958.727814
23771.026764,-937.986459,5781.059402,11083.554283
23771.029306,-248.853550,-937.986459,8863.014910
23771.031847,1244.267752,-1052.841944,8748.159426
23771.034389,-1225.125171,4287.938099,10853.843314
23771.036930,2163.111630,1282.552914,9762.716208
23771.039471,-1435.693560,-7599.604578,7446.463931
23771.042013,-2450.250342,10872.985894,12863.814298
23771.044554,382.851616,-7599.604578,7293.323285
23771.047096,555.134843,-5111.069074,8116.454259
23771.049637,-1914.258080,12136.396227,13782.658176
23771.052179,1531.406464,-9992.427178,6565.905214
23771.054720,1033.699363,-10336.993632,6087.340694
23771.057262,-4268.795518,10604.989763,12768.101394
23771.059803,19.142581,-2220.539373,9111.868461
23771.062345,1282.552914,-7446.463931,7159.325219
23771.064886,-1244.267752,8135.596840,12346.964616
23771.067428,-210.568389,-1512.263883,9207.581365
23771.069969,-957.129040,-5283.352301,7963.313613
23771.072511,-2335.394858,4211.367776,11160.124606
23771.075052,191.425808,-650.847747,9437.292334
23771.077593,306.281293,-3196.810994,8441.878133
23771.080135,-0.000000,2163.111630,10279.565890
23771.082676,-1244.267752,823.130974,9973.284597
23771.085218,210.568389,-2852.244539,9379.864592
23771.087759,-1339.980656,-4938.785846,8097.311678
23771.090301,-823.130974,10317.851051,12366.107197
23771.092842,2928.814862,-4728.217458,7695.317482
23771.095384,440.279358,-1895.115499,8403.592971
23771.097925,-1320.838075,13284.951075,13189.238171
23771.100467,1512.263883,-9475.577496,5991.627790
23771.103008,153.140646,1244.267752,9609.575562
23771.105550,-1607.976787,9360.722011,12614.960747
23771.108091,3407.379382,-9379.864592,6546.762634
23771.110633,-497.707101,4421.936165,10528.419440
23771.113174,-1110.269686,6623.332957,11504.691061
23771.115716,937.986459,-6699.903280,7044.469734
23771.118257,631.705166,-3713.660675,7944.171032
23771.120798,-0.000000,7676.174901,11447.263318
23771.123340,1129.412267,-38.285162,9265.009107
23771.125881,287.138712,-2277.967115,8518.448456
23771.128423,-133.998066,5474.778109,10815.558152
23771.130966,-612.562586,-842.273555,9188.438784
23771.133509,1780.260014,669.990328,9054.440718
23771.136053,-746.560651,-306.281293,9513.862658
23771.138596,-191.425808,5379.065205,11026.126541
23771.141139,708.275490,-7408.178770,7331.608446
23771.143682,-3311.666478,1684.547110,10202.995566
23771.146225,-976.271621,7446.463931,12117.253646
23771.148769,1378.265818,-13725.230434,7484.749093
23771.151312,1512.263883,-6623.332957,7618.747158
23771.153855,-2603.390989,13016.954944,13591.232368
23771.156398,1014.556782,-8154.739421,6987.041992
23771.158941,-1225.125171,-2220.539373,8633.303941
23771.161485,-2660.818731,9915.856854,12902.099459
23771.164028,1205.982590,-8518.448456,7025.327154
23771.166571,-880.558717,-535.992262,9111.868461
23771.169114,-1397.408398,6221.338760,11715.259450
23771.171657,-95.712904,-6699.903280,7791.030386
23771.174201,-1129.412267,172.283227,9647.860723
23771.176744,-765.703232,3943.371645,10719.845248
23771.179287,-153.140646,-4613.361973,8288.737486
23771.181830,-382.851616,-995.414202,9131.011042
23771.184373,-1091.127106,612.562586,9973.284597
23771.186917,-1895.115499,1378.265818,9992.427178
23771.189460,2756.531635,57.427742,9131.011042
23771.192003,-19.142581,-4287.938099,8154.739421
23771.194546,803.988394,12174.681389,12806.386555
23771.197090,823.130974,-6642.475538,6872.186507
23771.199633,19.142581,382.851616,9111.868461
23771.202176,-2699.103893,11734.402030,12997.812363
23771.204719,1971.685822,-8958.727814,6546.762634
23771.207262,306.281293,1588.834206,9781.858789
23771.209806,-421.136778,7599.604578,11868.400096
23771.212349,1301.695494,-1244.267752,8958.727814
23771.214892,574.277424,-3962.514226,7771.887805
23771.217435,-650.847747,6508.477472,11408.978157
23771.219978,1359.123237,497.707101,9245.866526
23771.222522,191.425808,-2105.683888,8231.309744
23771.225065,-995.414202,5187.639397,10853.843314
23771.227608,861.416136,-133.998066,9341.579430
23771.230151,-57.427742,-325.423874,8977.870395
23771.232696,995.414202,3828.516160,10260.423309
23771.235241,-1186.840010,-937.986459,9226.723946
23771.237786,1607.976787,2813.959378,9992.427178
23771.240331,-1148.554848,-6125.625856,8193.024582
23771.242876,-2067.398726,7791.030386,11983.255581
23771.245421,-784.845813,5742.774240,11485.548480
23771.247966,995.414202,-12327.822035,5915.057467
23771.250511,-1320.838075,7197.610381,12059.825904
23771.253056,-1148.554848,3483.949706,10738.987829
23771.255601,1359.123237,-10413.563955,6163.911018
23771.258146,-3560.520029,9360.722011,12289.536874
23771.260691,-19.142581,-650.847747,9494.720077
23771.263236,1320.838075,-7905.885870,7121.040058
23771.265781,-1569.691626,7886.743290,12002.398162
23771.268326,-0.000000,-1282.552914,9360.722011
23771.270871,-1091.127106,-5991.627790,7905.885870
23771.273416,-1722.832272,5704.489078,11562.118803
23771.275961,-650.847747,-2641.676150,10490.134278
23771.278506,133.998066,-5895.914886,7925.028451
23771.281051,-995.414202,4498.506488,10853.843314
23771.283596,-803.988394,-1416.550979,9590.432981
23771.286140,-1378.265818,-650.847747,9188.438784
23771.288685,1895.115499,2182.254211,9743.573627
23771.291230,114.855485,-3771.088418,8307.880067
23771.293775,1129.412267,9820.143950,12059.825904
23771.296320,497.707101,-6106.483275,7197.610381
23771.298865,-19.142581,2488.535504,9934.999435
23771.301410,-2220.539373,9188.438784,12136.396227
23771.303955,2048.256146,-8365.307810,6776.473603
23771.306500,38.285162,3426.521963,10394.421374
23771.309045,-1722.832272,8920.442653,12155.538808
23771.311590,1627.119368,-2603.390989,8441.878133
23771.314135,306.281293,-1741.974853,8595.018779
23771.316680,-382.851616,5781.059402,11236.694930
23771.319225,1263.410333,-631.705166,9035.298138
23771.321770,-325.423874,0.000000,8939.585234
23771.324315,-708.275490,4287.938099,10528.419440
23771.326860,1225.125171,-957.129040,8977.870395
23771.329405,-248.853550,918.843878,9456.434915
23771.331950,1301.695494,3771.088418,10222.138147
23771.334496,-1129.412267,-2833.101958,8633.303941
23771.337043,631.705166,5206.781978,10700.702667
23771.339589,248.853550,-7293.323285,8843.872330
23771.342135,-2316.252277,-3828.516160,8614.161360
23771.344681,-1167.697429,9820.143950,12691.531070
23771.347228,937.986459,-10987.841379,6259.623922
23771.349774,-306.281293,1359.123237,10183.852986
23771.352320,-2124.826469,8327.022648,12270.394293
23771.354867,1416.550979,-10394.421374,6144.768437
23771.357413,-2871.387120,5091.926493,10911.271056
23771.359959,-1263.410333,4077.369710,11083.554283
23771.362506,1493.121302,-9418.149754,6642.475538
23771.365052,-1952.543242,5417.350366,11140.982026
23771.367598,-535.992262,1818.545176,10279.565890
23771.370145,-459.421939,-8039.883936,7446.463931
23771.372691,-899.701298,-76.570323,9571.290400
23771.375237,-1780.260014,5608.776174,11370.692995
23771.377784,1244.267752,-6757.331022,7561.319416
23771.380330,-1607.976787,1761.117434,9992.427178
23771.382876,133.998066,3235.096155,10585.847182
23771.385423,-1244.267752,-6546.762634,7599.604578
23771.387969,401.994197,8671.589102,11562.118803
23771.390515,1052.841944,-5666.203917,7810.172966
23771.393062,267.996131,4957.928427,10700.702667
23771.395608,-1014.556782,5800.201982,10911.271056
23771.398154,1627.119368,-7408.178770,6776.473603
23771.400701,-1167.697429,8154.739421,11715.259450
23771.403247,-1531.406464,899.701298,12021.540742
23771.405793,2507.678085,-6470.192310,7484.749093
23771.408340,-229.710970,2660.818731,9896.714274
23771.410886,-957.129040,5225.924558,11026.126541
23771.413432,899.701298,-3924.229064,7905.885870
23771.415979,-133.998066,2431.107762,9934.999435
23771.418525,574.277424,3771.088418,10394.421374
23771.421071,746.560651,-2009.970984,8499.305875
23771.423618,-631.705166,2967.100024,10126.425243
23771.426164,612.562586,2737.389054,10011.569758
23771.428710,516.849682,-3043.670347,8346.165229
23771.431257,-133.998066,5627.918755,10700.702667
23771.433803,1205.982590,-2507.678085,8843.872330
23771.436350,-1244.267752,-7159.325219,7791.030386
23771.438898,-1627.119368,9437.292334,12289.536874
23771.441445,229.710970,-8269.594906,7197.610381
23771.443993,306.281293,-2297.109696,8882.157491
23771.446540,-2009.970984,9743.573627,12902.099459
23771.449087,1875.972918,-10949.556218,6336.194245
23771.451635,-1014.556782,2622.533570,10145.567824
23771.454182,-2029.113565,7637.889739,11944.970419
23771.456730,1646.261949,-9858.429112,6451.049730
23771.459277,-1895.115499,4709.074877,11026.126541
23771.461824,-191.425808,3101.098090,10930.413637
23771.464372,325.423874,-7829.315547,7140.182638
23771.466919,-2316.252277,4192.225195,8882.157491
23771.469467,-1225.125171,6087.340694,11696.116869
23771.472014,1186.840010,-5340.780043,7944.171032
23771.474561,-823.130974,-957.129040,9226.723946
23771.477109,-1282.552914,6202.196179,11466.405899
23771.479656,-38.285162,-6929.614250,7771.887805
23771.482204,-1875.972918,3579.662610,10432.706536
23771.484751,2277.967115,2335.394858,9973.284597
23771.487298,689.132909,-6585.047795,7389.036189
23771.489846,574.277424,12385.249778,12729.816232
23771.492393,976.271621,-6240.481341,7197.610381
23771.494941,-19.142581,918.843878,9341.579430
23771.497488,-2775.674216,10585.847182,12538.390424
23771.500035,555.134843,-937.986459,9226.723946
23771.502583,1799.402595,-6087.340694,7465.606512
23771.505130,-1282.552914,8767.302006,12059.825904
23771.507678,1263.410333,-2029.113565,8882.157491
23771.510225,114.855485,-1646.261949,8575.876198
23771.512772,-133.998066,5455.635528,11045.269122
23771.515320,1263.410333,-727.418070,8977.870395
23771.517867,-210.568389,19.142581,9016.155557
23771.520415,-555.134843,4268.795518,10470.991698
23771.522962,1493.121302,-210.568389,9073.583299
23771.525509,-287.138712,-478.564520,9131.011042
23771.528057,842.273555,5608.776174,10662.417506
23771.530604,803.988394,-4919.643266,9265.009107
23771.533151,-2277.967115,-3349.951640,8863.014910
23771.535699,-535.992262,8595.018779,12040.683323
23771.538247,401.994197,-12002.398162,6106.483275
23771.540795,-1033.699363,4211.367776,10872.985894
23771.543343,-1244.267752,5551.348432,11523.833642
23771.545891,2277.967115,-12653.245909,5723.631659
23771.548439,-2048.256146,7886.743290,11964.113000
23771.550987,-957.129040,3311.666478,10758.130410
23771.553535,861.416136,-9188.438784,6565.905214
23771.556083,-2679.961312,8020.741355,12059.825904
23771.558631,229.710970,-995.414202,9609.575562
23771.561179,-267.996131,-6585.047795,7389.036189
23771.563728,-1856.830338,727.418070,10068.997501
23771.566276,-535.992262,4287.938099,11198.409768
23771.568824,1129.412267,-6317.051664,7695.317482
23771.571372,-1493.121302,1971.685822,10164.710405
23771.573920,-784.845813,4077.369710,10872.985894
23771.576468,153.140646,-7293.323285,7465.606512
23771.579016,-2086.541307,5379.065205,11102.696864
23771.581564,2526.820666,1531.406464,9705.288466
23771.584112,497.707101,-7618.747158,6967.899411
23771.586660,-172.283227,14108.082050,13323.236237
23771.589208,1225.125171,-6317.051664,7178.467800
23771.591756,229.710970,-784.845813,8729.016845
23771.594304,-2813.959378,12576.675586,12461.820101
23771.596852,172.283227,727.418070,9781.858789
23771.599400,1703.689691,-7752.745224,6910.471669
23771.601948,-1359.123237,9437.292334,12136.396227
23771.604496,1052.841944,-1186.840010,9073.583299
23771.607045,287.138712,-2565.105827,8193.024582
23771.609593,-153.140646,5742.774240,11006.983960
23771.612141,861.416136,-516.849682,8939.585234
23771.614689,-114.855485,-248.853550,8958.727814
23771.617237,-287.138712,4077.369710,10432.706536
23771.619785,1167.697429,478.564520,9379.864592
23771.622333,172.283227,-593.420005,9073.583299
23771.624881,-669.990328,4651.647134,10451.849117
23771.627429,1301.695494,3005.385186,10222.138147
23771.629977,-765.703232,-7925.028451,7542.176835
23771.632525,-2297.109696,8709.874264,12346.964616
23771.635073,440.279358,-5474.778109,8059.026517
23771.637621,459.421939,-6068.198114,7657.032320
23771.640170,-2507.678085,11294.122672,13323.236237
23771.642719,937.986459,-7829.315547,7274.180704
23771.645268,38.285162,-1933.400661,8767.302006
23771.647817,-2335.394858,9781.858789,12672.388490
23771.650366,1205.982590,-8231.309744,6987.041992
23771.652915,-1186.840010,287.138712,9456.434915
23771.655463,-842.273555,5513.063270,11485.548480
23771.658012,38.285162,-6259.623922,9265.009107
23771.660561,-440.279358,-4536.791650,8384.450390
23771.663110,-1205.982590,4651.647134,11294.122672
23771.665659,-57.427742,-2258.824534,8977.870395
23771.668208,57.427742,-2392.822600,8690.731683
23771.670757,-1875.972918,3522.234867,10719.845248
23771.673306,1282.552914,-1454.836141,9188.438784
23771.675855,-1301.695494,-3790.230998,8537.591037
23771.678404,-555.134843,10375.278794,12251.251712
23771.680952,2603.390989,-7255.038123,7025.327154
23771.683501,-229.710970,2718.246474,9915.856854
23771.686050,-1014.556782,10470.991698,12404.392358
23771.688599,2143.969050,-10107.282662,5781.059402
23771.691148,1607.976787,-5513.063270,7369.893608
23771.693697,-1684.547110,10030.712339,12768.101394
23771.696246,2163.111630,-3694.518094,8422.735552
23771.698795,325.423874,-1761.117434,8403.592971
23771.701344,-746.560651,6699.903280,11408.978157
23771.703892,937.986459,-2392.822600,8595.018779
23771.706441,535.992262,1091.127106,9399.007173
23771.708990,248.853550,3369.094221,10241.280728
23771.711539,593.420005,-593.420005,9054.440718
23771.714088,191.425808,2718.246474,9820.143950
23771.716637,-95.712904,-57.427742,9360.722011
23771.719186,1531.406464,2584.248408,9686.145885
23771.721735,631.705166,-1205.982590,9131.011042
23771.724284,-2565.105827,1473.978722,10260.423309
23771.726833,803.988394,2124.826469,10298.708470
23771.729381,-1244.267752,-9226.723946,7063.612315
23771.731930,-1397.408398,8997.012976,12461.820101
23771.734479,153.140646,-3292.523898,8518.448456
23771.737028,1416.550979,-7657.032320,7197.610381
23771.739577,-2526.820666,10470.991698,12978.669782
23771.742127,172.283227,-3905.086483,8384.450390
23771.744676,-306.281293,-3809.373579,8193.024582
23771.747226,-2239.681954,7848.458128,12155.538808
23771.749775,497.707101,-5091.926493,8250.452325
23771.752324,-1129.412267,-1761.117434,8805.587168
23771.754874,-1359.123237,3330.809059,10738.987829
23771.757423,38.285162,-459.421939,9762.716208
23771.759972,76.570323,-3388.236802,8633.303941
23771.762522,-1110.269686,2469.392923,10336.993632
23771.765071,-535.992262,287.138712,9667.003304
23771.767621,287.138712,-3426.521963,8575.876198
23771.770170,-2411.965181,2584.248408,10451.849117
23771.772719,2143.969050,3732.803256,10183.852986
23771.775269,899.701298,-8461.020714,6814.758765
23771.777818,-727.418070,12595.818166,13036.097525
23771.780367,363.709035,-689.132909,8977.870395
23771.782917,1071.984525,-6259.623922,6987.041992
23771.785466,-306.281293,5111.069074,10738.987829
23771.788016,-1339.980656,6336.194245,11600.403965
23771.790565,2297.109696,-8059.026517,6891.329088
23771.793114,-1588.834206,5513.063270,10987.841379
23771.795664,421.136778,4287.938099,10700.702667
23771.798213,784.845813,-5608.776174,7350.751027
23771.800762,-191.425808,5359.922624,10834.700733
23771.803312,440.279358,2469.392923,10030.712339
23771.805861,555.134843,-3330.809059,8116.454259
23771.808411,-95.712904,5474.778109,10662.417506
23771.810960,-172.283227,114.855485,9590.432981
23771.813509,1627.119368,401.994197,9016.155557
23771.816059,-1205.982590,401.994197,9552.147819
23771.818608,-2679.961312,4460.221326,11064.411702
23771.821158,1129.412267,-1225.125171,9360.722011
23771.823707,-1933.400661,-8020.741355,7408.178770
23771.826256,-1435.693560,11140.982026,13227.523333
23771.828806,497.707101,-7312.465866,7350.751027
23771.831355,937.986459,-4977.071008,8001.598774
23771.833904,-2565.105827,11160.124606,13189.238171
23771.836454,784.845813,-7082.754896,7389.036189
23771.839003,-899.701298,-1531.406464,8824.729749
23771.841553,-1799.402595,7676.174901,12136.396227
23771.844102,957.129040,-6719.045861,7733.602643
23771.846652,-1416.550979,-114.855485,9399.007173
23771.849201,-1091.127106,4555.934230,11217.552349
23771.851751,57.427742,-2124.826469,9265.009107
23771.854301,-363.709035,-2833.101958,8824.729749
23771.856850,-765.703232,3005.385186,10566.704602
23771.859400,-382.851616,-1397.408398,9245.866526
23771.861950,555.134843,-1646.261949,8977.870395
23771.864499,-2239.681954,1110.269686,10088.140082
23771.867049,1531.406464,4823.930362,10528.419440
23771.869598,1071.984525,-7503.891674,7101.897477
23771.872148,-669.990328,9915.856854,12193.823970
23771.874698,248.853550,2526.820666,9934.999435
23771.877247,1359.123237,-7886.743290,6470.192310
23771.879797,-1435.693560,10911.271056,12614.960747
23771.882346,-1493.121302,8231.309744,12212.966550
23771.884896,2201.396792,-7044.469734,7197.610381
23771.887446,-937.986459,2641.676150,10011.569758
23771.889995,-153.140646,6049.055533,11294.122672
23771.892545,1148.554848,-4843.072942,7637.889739
23771.895095,-631.705166,3196.810994,10088.140082
23771.897644,114.855485,4555.934230,10585.847182
23771.900194,1033.699363,-3579.662610,7963.313613
23771.902743,114.855485,4287.938099,10317.851051
23771.905293,-191.425808,1856.830338,10049.854920
23771.907843,1435.693560,-421.136778,8767.302006
23771.910392,-57.427742,-689.132909,9265.009107
23771.912942,-2947.957443,516.849682,10107.282662
23771.915492,191.425808,5245.067139,11198.409768
23771.918041,-19.142581,-12193.823970,6125.625856
23771.920591,-1186.840010,6470.192310,11734.402030
23771.923140,-842.273555,3292.523898,10738.987829
23771.925690,1895.115499,-12117.253646,5666.203917
23771.928240,-2182.254211,8786.444587,12289.536874
23771.930789,-880.558717,2220.539373,10394.421374
23771.933339,823.130974,-8671.589102,6833.901346
23771.935889,-2354.537438,7714.460062,11772.687192
23771.938438,114.855485,-1416.550979,9379.864592
23771.940988,-823.130974,-5225.924558,7905.885870
23771.943537,-1244.267752,5359.922624,11408.978157
23771.946088,-631.705166,1895.115499,10470.991698
23771.948638,-133.998066,-5225.924558,8269.594906
23771.951188,-689.132909,3407.379382,10528.419440
23771.953738,-1091.127106,-1148.554848,9552.147819
23771.956288,574.277424,133.998066,9456.434915
23771.958838,880.558717,-2086.541307,8824.729749
23771.961388,-995.414202,5493.920690,10987.841379
23771.963938,2431.107762,1741.974853,9571.290400
23771.966489,535.992262,-6565.905214,6948.756830
23771.969039,-861.416136,12002.398162,12825.529136
23771.971589,210.568389,-2411.965181,8288.737486
23771.974139,1895.115499,-5187.639397,7427.321350
23771.976689,-38.285162,3732.803256,10509.276859
23771.979239,-0.000000,4977.071008,11102.696864
23771.981789,2009.970984,-6049.055533,7293.323285
23771.984339,-1148.554848,3771.088418,10298.708470
23771.986890,899.701298,4115.654872,10643.274925
23771.989440,899.701298,-3962.514226,7867.600709
23771.991990,-248.853550,4153.940034,10356.136213
23771.994540,803.988394,3809.373579,10356.136213
23771.997090,459.421939,-3101.098090,8288.737486
23771.999640,497.707101,3751.945837,10222.138147
23772.002190,-1378.265818,1588.834206,9973.284597
23772.004740,1684.547110,765.703232,9226.723946
23772.007291,1378.265818,-6183.053598,7637.889739
23772.009841,-2947.957443,746.560651,10202.995566
23772.012391,-765.703232,7044.469734,12040.683323
23772.014941,669.990328,-12653.245909,5589.633594
23772.017491,-1052.841944,5647.061336,11370.692995
23772.020041,-1684.547110,5838.487144,11542.976222
23772.022591,1761.117434,-10662.417506,5972.485210
23772.025141,-2718.246474,6565.905214,11447.263318
23772.027692,-325.423874,2182.254211,10413.563955
23772.030242,535.992262,-8059.026517,6910.471669
23772.032792,-1761.117434,5953.342629,11447.263318
23772.035342,76.570323,-1225.125171,9437.292334
23772.037892,-76.570323,-5302.494882,8059.026517
23772.040442,-1914.258080,1761.117434,10317.851051
23772.042992,-210.568389,2354.537438,10317.851051
23772.045543,-229.710970,-5685.346498,7944.171032
23772.048093,191.425808,4517.649069,10777.272990
23772.050643,-1282.552914,-2967.100024,9016.155557
23772.053193,38.285162,5321.637462,10528.419440
23772.055743,1359.123237,-2163.111630,8556.733618
23772.058294,267.996131,1282.552914,9513.862658
23772.060844,-421.136778,8307.880067,11734.402030
23772.063394,1205.982590,-7121.040058,6795.616184
23772.065944,555.134843,3483.949706,10260.423309
23772.068495,-1665.404530,5761.916821,11351.550414
23772.071045,2392.822600,-6049.055533,8901.300072
23772.073595,478.564520,-2565.105827,8307.880067
23772.076145,-727.418070,5915.057467,10968.698798
23772.078696,1512.263883,-1148.554848,8901.300072
23772.081246,382.851616,-535.992262,8824.729749
23772.083796,-363.709035,5091.926493,10719.845248
23772.086346,1129.412267,-57.427742,9054.440718
23772.088897,-440.279358,478.564520,9265.009107
23772.091447,440.279358,3311.666478,10260.423309
23772.093997,-995.414202,-191.425808,9360.722011
23772.096547,1761.117434,1990.828403,9667.003304
23772.099098,-1378.265818,-5666.203917,8307.880067
23772.101648,-1818.545176,7829.315547,12117.253646
23772.104198,-746.560651,3713.660675,10968.698798
23772.106748,708.275490,-11944.970419,5934.200048
23772.109299,-1607.976787,8863.014910,12576.675586
23772.111849,-1091.127106,1818.545176,10317.851051
23772.114399,1837.687757,-9647.860723,6259.623922
23772.116949,-3426.521963,8690.731683,12059.825904
23772.119499,-133.998066,-401.994197,9571.290400
23772.122050,976.271621,-7542.176835,7063.612315
23772.124600,-1722.832272,6010.770371,11657.831707
23772.127150,-19.142581,-669.990328,9609.575562
23772.129700,-95.712904,-5474.778109,8020.741355
23772.132251,-1703.689691,4536.791650,11140.982026
23772.134801,344.566454,-2201.396792,10547.562021
23772.137351,-535.992262,-4996.213589,8193.024582
23772.139901,746.560651,2813.959378,10183.852986
23772.142452,-1473.978722,-2009.970984,9341.579430
23772.145002,-229.710970,6278.766502,10777.272990
23772.147552,1799.402595,-3656.232933,7791.030386
23772.150102,95.712904,1435.693560,9609.575562
23772.152652,-535.992262,9858.429112,12232.109131
23772.155203,1646.261949,-8805.587168,6240.481341
23772.157753,574.277424,3637.090352,10222.138147
23772.160303,-1914.258080,6967.899411,11696.116869
23772.162853,2431.107762,-6814.758765,7235.895542
23772.165403,-957.129040,3311.666478,10222.138147
23772.167953,-1014.556782,6661.618118,11351.550414
23772.170503,1473.978722,-995.414202,9054.440718
23772.173054,689.132909,-1167.697429,8595.018779
23772.175604,-114.855485,5321.637462,10796.415571
23772.178154,1167.697429,708.275490,9169.296203
23772.180704,-363.709035,-650.847747,8977.870395
23772.183254,612.562586,4058.227130,10336.993632
23772.185804,-976.271621,-1397.408398,9054.440718
23772.188355,689.132909,3771.088418,10183.852986
23772.190905,133.998066,-6814.758765,7886.743290
23772.193455,-2813.959378,4115.654872,11160.124606
23772.196005,-516.849682,1186.840010,10202.995566
23772.198555,631.705166,-10700.702667,6297.909083
23772.201105,-95.712904,421.136778,9839.286531
23772.203655,-2431.107762,9188.438784,12614.960747
23772.206206,1665.404530,-9571.290400,6470.192310
23772.208756,-1837.687757,2603.390989,10068.997501
23772.211306,-1493.121302,5781.059402,11562.118803
23772.213856,861.416136,-8231.309744,7101.897477
23772.216406,-1741.974853,2239.681954,10241.280728
23772.218956,-574.277424,2813.959378,10719.845248
23772.221507,267.996131,-6087.340694,7925.028451
23772.224057,-2086.541307,1646.261949,10336.993632
23772.226607,-210.568389,1780.260014,10164.710405
23772.229157,-612.562586,-4383.651003,8288.737486
23772.231707,-689.132909,1895.115499,9934.999435
23772.234257,2067.398726,-746.560651,9054.440718
23772.236807,-421.136778,497.707101,9360.722011
23772.239358,1493.121302,7101.897477,11045.269122
23772.241908,957.129040,-7752.745224,6642.475538
23772.244458,-689.132909,7982.456194,11676.974288
