#time,accel_x,accel_y,accel_z
24949.251720,-210.568389,440.279358,9513.862658
24949.254254,-153.140646,459.421939,9590.432981
24949.256787,-95.712904,382.851616,9571.290400
24949.259321,-95.712904,440.279358,9552.147819
24949.261855,-153.140646,459.421939,9628.718142
24949.264388,-172.283227,401.994197,9609.575562
24949.266922,-153.140646,401.994197,9571.290400
24949.269456,-153.140646,689.132909,9743.573627
24949.271989,-957.129040,325.423874,9437.292334
24949.274523,-593.420005,-95.712904,9322.436850
24949.277057,-478.564520,708.275490,9609.575562
24949.279590,-1703.689691,1320.838075,9533.005238
24949.282124,669.990328,440.279358,9418.149754
24949.284658,382.851616,1914.258080,10049.854920
24949.287191,-19.142581,-267.996131,9456.434915
24949.289727,-1091.127106,-248.853550,9265.009107
24949.292264,-306.281293,1684.547110,9934.999435
24949.294800,-401.994197,76.570323,9724.431046
24949.297336,-1856.830338,133.998066,9092.725880
24949.299872,899.701298,899.701298,9513.862658
24949.302409,-191.425808,3177.668413,10375.278794
24949.304945,1301.695494,-2143.969050,8997.012976
24949.307481,478.564520,-1761.117434,9073.583299
24949.310017,1091.127106,2335.394858,10451.849117
24949.312554,153.140646,-38.285162,9781.858789
24949.315090,823.130974,-4211.367776,8173.882002
24949.317626,153.140646,4287.938099,10662.417506
24949.320162,-1493.121302,708.275490,9743.573627
24949.322699,1052.841944,-3349.951640,8461.020714
24949.325235,-287.138712,3675.375514,10394.421374
24949.327771,-516.849682,918.843878,9724.431046
24949.330307,-0.000000,-3158.525832,8537.591037
24949.332844,1244.267752,1875.972918,10279.565890
24949.335380,-708.275490,1014.556782,9973.284597
24949.337916,-746.560651,-19.142581,9379.864592
24949.340452,516.849682,-1454.836141,9016.155557
24949.342989,1110.269686,2029.113565,10126.425243
24949.345525,-1378.265818,593.420005,9686.145885
24949.348061,612.562586,-2163.111630,8690.731683
24949.350597,401.994197,2450.250342,10336.993632
24949.353133,-516.849682,765.703232,9877.571693
24949.355670,1033.699363,-2967.100024,8614.161360
24949.358206,650.847747,1990.828403,10164.710405
24949.360742,-612.562586,1703.689691,10011.569758
24949.363278,-95.712904,-2373.680019,8614.161360
24949.365815,2048.256146,555.134843,9934.999435
24949.368351,-899.701298,3809.373579,10566.704602
24949.370887,-306.281293,191.425808,9686.145885
24949.373423,421.136778,-2603.390989,8652.446522
24949.375960,2048.256146,2086.541307,10356.136213
24949.378496,-1665.404530,3388.236802,10490.134278
24949.381032,-306.281293,-6240.481341,7484.749093
24949.383568,2584.248408,4709.074877,10834.700733
24949.386105,-3541.377448,459.421939,9877.571693
24949.388641,4651.647134,-5493.920690,7886.743290
24949.391177,-3464.807125,9284.151688,11944.970419
24949.393714,-1627.119368,-5819.344563,7599.604578
24949.396250,2699.103893,727.418070,9322.436850
24949.398786,-3732.803256,10011.569758,12289.536874
24949.401322,325.423874,-2852.244539,8824.729749
24949.403859,1186.840010,-6642.475538,7274.180704
24949.406395,-1684.547110,11121.839445,12787.243974
24949.408931,-1397.408398,-4249.652938,8480.163294
24949.411468,631.705166,-3522.234867,7963.313613
24949.414004,-631.705166,8365.307810,11925.827838
24949.416540,803.988394,-2316.252277,8863.014910
24949.419077,-459.421939,-1225.125171,8537.591037
24949.421613,-1244.267752,4460.221326,10758.130410
24949.424149,-1282.552914,-267.996131,9533.005238
24949.426686,-133.998066,-995.414202,8958.727814
24949.429222,899.701298,1148.554848,9839.286531
24949.431758,-153.140646,1416.550979,9973.284597
24949.434295,-1186.840010,114.855485,9494.720077
24949.436831,-267.996131,-267.996131,9303.294269
24949.439367,-363.709035,1818.545176,9934.999435
24949.441904,-689.132909,861.416136,9647.860723
24949.444440,325.423874,-650.847747,9207.581365
24949.446976,172.283227,1301.695494,9743.573627
24949.449513,-1167.697429,899.701298,9801.001370
24949.452049,-612.562586,-248.853550,9265.009107
24949.454585,-1588.834206,1875.972918,9686.145885
24949.457122,306.281293,1569.691626,9762.716208
24949.459658,459.421939,267.996131,9609.575562
24949.462194,76.570323,-287.138712,9360.722011
24949.464731,382.851616,248.853550,9571.290400
24949.467267,-2048.256146,2086.541307,10068.997501
24949.469803,-267.996131,229.710970,9322.436850
24949.472340,-267.996131,-957.129040,9111.868461
24949.474876,478.564520,2794.816797,10183.852986
24949.477412,-1722.832272,-210.568389,9456.434915
24949.479949,1110.269686,1282.552914,9705.288466
24949.482485,-5168.496816,306.281293,9437.292334
24949.485021,2794.816797,-1244.267752,8977.870395
24949.487558,-937.986459,6585.047795,11332.407834
24949.490094,248.853550,-7752.745224,7389.036189
24949.492632,3905.086483,-650.847747,9456.434915
24949.495170,-6202.196179,10585.847182,12729.816232
24949.497709,-1225.125171,-4651.647134,8384.450390
24949.500247,2967.100024,-6527.620053,7331.608446
24949.502785,229.710970,12078.968485,13208.380752
24949.505324,76.570323,-4383.651003,8403.592971
24949.507862,1550.549045,-3426.521963,8193.024582
24949.510400,-1244.267752,7886.743290,12174.681389
24949.512939,344.566454,-5245.067139,8078.169098
24949.515477,382.851616,-689.132909,8843.872330
24949.518015,459.421939,3962.514226,10892.128475
24949.520554,880.558717,-2584.248408,9035.298138
24949.523092,-114.855485,344.566454,9379.864592
24949.525630,-95.712904,1531.406464,9896.714274
24949.528169,-229.710970,535.992262,9609.575562
24949.530707,210.568389,382.851616,9571.290400
24949.533245,133.998066,-1091.127106,9341.579430
24949.535784,114.855485,708.275490,9667.003304
24949.538322,-191.425808,1244.267752,9915.856854
24949.540860,899.701298,-248.853550,9494.720077
24949.543399,76.570323,-153.140646,9379.864592
24949.545937,-114.855485,1244.267752,9762.716208
24949.548475,478.564520,-172.283227,9590.432981
24949.551014,1378.265818,-1148.554848,9456.434915
24949.553552,-459.421939,880.558717,9858.429112
24949.556090,-612.562586,363.709035,9552.147819
24949.558629,1627.119368,-287.138712,9437.292334
24949.561167,-593.420005,1282.552914,9628.718142
24949.563705,-153.140646,-1014.556782,9035.298138
24949.566244,-535.992262,325.423874,9724.431046
24949.568782,478.564520,1263.410333,9915.856854
24949.571320,-1186.840010,-2565.105827,8767.302006
24949.573859,2431.107762,1148.554848,9686.145885
24949.576397,-2354.537438,3254.238736,10451.849117
24949.578935,3981.656806,-4977.071008,8307.880067
24949.581474,-1971.685822,4613.361973,10872.985894
24949.584012,-3905.086483,-2488.535504,8537.591037
24949.586550,3694.518094,-95.712904,9245.866526
24949.589089,-5379.065205,7752.745224,11523.833642
24949.591627,1799.402595,-9647.860723,8173.882002
24949.594165,2048.256146,-2660.818731,8097.311678
24949.596704,-1473.978722,11217.552349,12921.242040
24949.599242,-1014.556782,-7733.602643,7293.323285
24949.601781,842.273555,-3120.240670,8135.596840
24949.604320,-2526.820666,10700.702667,12787.243974
24949.606858,-842.273555,-6680.760699,7350.751027
24949.609397,1110.269686,-459.421939,8882.157491
24949.611935,-631.705166,7695.317482,11887.542677
24949.614474,-1225.125171,-3445.664544,8403.592971
24949.617012,-1071.984525,-1320.838075,8595.018779
24949.619551,-937.986459,4307.080680,11026.126541
24949.622090,-555.134843,-133.998066,9418.149754
24949.624628,803.988394,-689.132909,9284.151688
24949.627167,-0.000000,-401.994197,9207.581365
24949.629705,-708.275490,861.416136,9705.288466
24949.632244,-976.271621,1129.412267,9724.431046
24949.634782,57.427742,612.562586,9686.145885
24949.637321,-612.562586,-95.712904,9245.866526
24949.639860,-153.140646,1167.697429,9705.288466
24949.642398,-535.992262,1167.697429,9667.003304
24949.644937,-1665.404530,229.710970,9284.151688
24949.647475,-421.136778,727.418070,9494.720077
24949.650014,459.421939,2469.392923,10222.138147
24949.652552,-210.568389,-535.992262,9054.440718
24949.655091,880.558717,-1875.972918,8958.727814
24949.657629,-1205.982590,1971.685822,10164.710405
24949.660168,-1646.261949,1780.260014,9762.716208
24949.662707,-459.421939,-3369.094221,8193.024582
24949.665245,574.277424,3503.092286,10260.423309
24949.667784,-1493.121302,1225.125171,9896.714274
24949.670322,38.285162,-899.701298,9054.440718
24949.672861,-4039.084549,-612.562586,9245.866526
24949.675399,2660.818731,2124.826469,10088.140082
24949.677938,-3311.666478,3273.381317,10145.567824
24949.680477,2431.107762,-8939.585234,6910.471669
24949.683015,3407.379382,5761.916821,11351.550414
24949.685554,-5111.069074,5245.067139,11351.550414
24949.688092,1033.699363,-9667.003304,6814.758765
24949.690631,2622.533570,-1569.691626,8767.302006
24949.693169,-497.707101,11523.833642,13074.382686
24949.695709,784.845813,-8441.878133,6967.899411
24949.698248,555.134843,267.996131,9150.153622
24949.700788,-1722.832272,6642.475538,11887.542677
24949.703328,880.558717,-6221.338760,7886.743290
24949.705867,497.707101,516.849682,9322.436850
24949.708407,57.427742,3809.373579,10872.985894
24949.710946,-76.570323,-3445.664544,8556.733618
24949.713486,669.990328,344.566454,9475.577496
24949.716025,-76.570323,2354.537438,10145.567824
24949.718565,-38.285162,1186.840010,9954.142016
24949.721104,727.418070,-19.142581,9571.290400
24949.723644,708.275490,-95.712904,9609.575562
24949.726183,76.570323,497.707101,9647.860723
24949.728723,-248.853550,689.132909,9647.860723
24949.731262,937.986459,-229.710970,9494.720077
24949.733802,401.994197,172.283227,9571.290400
24949.736341,267.996131,631.705166,9743.573627
24949.738881,-306.281293,-574.277424,9437.292334
24949.741420,57.427742,-612.562586,9360.722011
24949.743960,114.855485,899.701298,9839.286531
24949.746499,1741.974853,-133.998066,9686.145885
24949.749039,229.710970,1263.410333,9820.143950
24949.751578,-114.855485,95.712904,9533.005238
24949.754118,-957.129040,-823.130974,9341.579430
24949.756657,1493.121302,478.564520,9858.429112
24949.759197,-2354.537438,957.129040,9667.003304
24949.761737,1569.691626,-3694.518094,8269.594906
24949.764276,-612.562586,5149.354235,11006.983960
24949.766816,440.279358,-2488.535504,9092.725880
24949.769355,2297.109696,1301.695494,9896.714274
24949.771895,-5742.774240,2297.109696,9896.714274
24949.774434,4498.506488,-5589.633594,7867.600709
24949.776974,-2507.678085,10451.849117,12366.107197
24949.779513,-1971.685822,-3981.656806,8097.311678
24949.782053,2871.387120,-10107.282662,6240.481341
24949.784592,842.273555,7523.034254,11581.261384
24949.787132,-2833.101958,4058.227130,10892.128475
24949.789671,133.998066,-11542.976222,5838.487144
24949.792211,-650.847747,8901.300072,12021.540742
24949.794750,-2239.681954,2947.957443,10528.419440
24949.797291,1397.408398,-7025.327154,6872.186507
24949.799832,899.701298,6661.618118,11370.692995
24949.802372,-2526.820666,2679.961312,10432.706536
24949.804913,-1071.984525,-6795.616184,6987.041992
24949.807454,-306.281293,4479.363907,10758.130410
24949.809994,-1148.554848,3005.385186,10681.560086
24949.812535,516.849682,-3235.096155,8365.307810
24949.815076,-267.996131,-1569.691626,8786.444587
24949.817616,-344.566454,631.705166,9437.292334
24949.820157,-1531.406464,1531.406464,9858.429112
24949.822698,-248.853550,210.568389,9609.575562
24949.825239,-593.420005,-344.566454,9303.294269
24949.827779,-1473.978722,2526.820666,9934.999435
24949.830320,153.140646,382.851616,9399.007173
24949.832861,784.845813,593.420005,9609.575562
24949.835401,-1301.695494,631.705166,9571.290400
24949.837942,-1339.980656,574.277424,9475.577496
24949.840483,-593.420005,153.140646,9494.720077
24949.843023,-823.130974,267.996131,9494.720077
24949.845564,1282.552914,-306.281293,9341.579430
24949.848105,-57.427742,3847.658741,10585.847182
24949.850645,1033.699363,-1148.554848,9073.583299
24949.853186,-2679.961312,344.566454,9131.011042
24949.855727,650.847747,918.843878,9820.143950
24949.858268,-382.851616,3445.664544,10509.276859
24949.860808,-1301.695494,-5168.496816,7695.317482
24949.863349,6393.621987,3139.383251,10662.417506
24949.865890,-3273.381317,7810.172966,11983.255581
24949.868430,2335.394858,-13782.658176,5340.780043
24949.870971,-555.134843,6489.334891,11160.124606
24949.873512,-3483.949706,4785.645200,11351.550414
24949.876052,2277.967115,-11830.114934,5876.772306
24949.878593,2679.961312,-3541.377448,7982.456194
24949.881134,-1244.267752,11753.544611,13036.097525
24949.883674,172.283227,-6910.471669,7580.461997
24949.886215,1052.841944,-2488.535504,8518.448456
24949.888756,-459.421939,5819.344563,11657.831707
24949.891296,248.853550,-3081.955509,8729.016845
24949.893837,1148.554848,-1493.121302,8863.014910
24949.896378,459.421939,3292.523898,10777.272990
24949.898918,-937.986459,210.568389,9513.862658
24949.901459,76.570323,-1033.699363,8767.302006
24949.904000,287.138712,1071.984525,9781.858789
24949.906540,95.712904,1148.554848,9973.284597
24949.909081,-861.416136,880.558717,9820.143950
24949.911622,401.994197,-727.418070,9284.151688
24949.914162,650.847747,153.140646,9533.005238
24949.916703,421.136778,1071.984525,9820.143950
24949.919244,191.425808,-803.988394,9303.294269
24949.921784,-421.136778,57.427742,9590.432981
24949.924325,-344.566454,325.423874,9801.001370
24949.926866,1895.115499,-267.996131,9609.575562
24949.929406,-57.427742,1435.693560,9724.431046
24949.931947,-172.283227,-1493.121302,8901.300072
24949.934488,-248.853550,497.707101,9781.858789
24949.937028,-0.000000,2067.398726,10145.567824
24949.939569,-2163.111630,-2967.100024,9150.153622
24949.942110,2679.961312,-2086.541307,8786.444587
24949.944650,-1607.976787,5149.354235,11140.982026
24949.947191,2967.100024,-3924.229064,8767.302006
24949.949732,-1359.123237,2048.256146,10011.569758
24949.952272,-4287.938099,-669.990328,9016.155557
24949.954813,3675.375514,-306.281293,9494.720077
24949.957354,-5264.209720,6412.764568,11064.411702
24949.959894,1397.408398,-8307.880067,6795.616184
24949.962435,-861.416136,7312.465866,11274.980091
24949.964975,-1971.685822,4785.645200,10968.698798
24949.967516,976.271621,-11179.267187,5991.627790
24949.970057,57.427742,8327.022648,11791.829773
24949.972597,-2335.394858,11408.978157,13036.097525
24949.975138,-918.843878,-6891.329088,7369.893608
24949.977679,957.129040,-1914.258080,8307.880067
24949.980219,-1780.260014,10126.425243,12404.392358
24949.982760,-133.998066,-4670.789715,8097.311678
24949.985301,1033.699363,-1033.699363,8882.157491
24949.987841,-1990.828403,5953.342629,11428.120738
24949.990382,-842.273555,-3311.666478,8441.878133
24949.992923,440.279358,-306.281293,8958.727814
24949.995463,-267.996131,2794.816797,10451.849117
24949.998004,-191.425808,19.142581,9456.434915
24950.000544,-861.416136,229.710970,9379.864592
24950.003084,-459.421939,-114.855485,9571.290400
24950.005625,-957.129040,1818.545176,9762.716208
24950.008165,-708.275490,1091.127106,9552.147819
24950.010705,1397.408398,-899.701298,9131.011042
24950.013245,-861.416136,2833.101958,10126.425243
24950.015786,-2086.541307,0.000000,9379.864592
24950.018326,-325.423874,-1837.687757,8997.012976
24950.020866,-1378.265818,3062.812928,10107.282662
24950.023406,1569.691626,1129.412267,9743.573627
24950.025947,325.423874,229.710970,9590.432981
24950.028487,746.560651,631.705166,9628.718142
24950.031027,-2833.101958,1110.269686,9801.001370
24950.033567,995.414202,1320.838075,9858.429112
24950.036107,-784.845813,3905.086483,10394.421374
24950.038648,-746.560651,-4804.787781,7829.315547
24950.041188,6374.479406,3943.371645,10911.271056
24950.043728,-3713.660675,6642.475538,11753.544611
24950.046268,2737.389054,-14088.939469,5206.781978
24950.048809,-1722.832272,8212.167163,11657.831707
24950.051349,-2545.963246,3005.385186,10815.558152
24950.053889,3177.668413,-11562.118803,5991.627790
24950.056429,1435.693560,10490.134278,12423.534939
24950.058969,-1263.410333,2297.109696,10432.706536
24950.061510,421.136778,-9150.153622,6278.766502
24950.064050,325.423874,7293.323285,11753.544611
24950.066590,-76.570323,6987.041992,12059.825904
24950.069130,803.988394,-4460.221326,8403.592971
24950.071671,1397.408398,-1799.402595,8805.587168
24950.074211,-172.283227,4441.078746,11102.696864
24950.076751,-1856.830338,-344.566454,9322.436850
24950.079291,1301.695494,-2201.396792,8614.161360
24950.081832,38.285162,3751.945837,10547.562021
24950.084372,401.994197,516.849682,9781.858789
24950.086912,669.990328,-1703.689691,8997.012976
24950.089452,708.275490,1129.412267,9934.999435
24950.091992,-631.705166,1301.695494,9992.427178
24950.094533,555.134843,-1378.265818,8920.442653
24950.097073,669.990328,363.709035,9571.290400
24950.099613,535.992262,1205.982590,10107.282662
24950.102154,631.705166,-1014.556782,9571.290400
24950.104695,516.849682,669.990328,9571.290400
24950.107236,-19.142581,689.132909,9686.145885
24950.109777,-612.562586,-1244.267752,9092.725880
24950.112318,803.988394,1646.261949,9992.427178
24950.114859,-401.994197,-497.707101,9399.007173
24950.117400,2258.824534,-38.285162,9418.149754
24950.119940,-2411.965181,2086.541307,10049.854920
24950.122481,3675.375514,-2699.103893,8882.157491
24950.125022,-3292.523898,1646.261949,9801.001370
24950.127563,19.142581,-3062.812928,8518.448456
24950.130104,4555.934230,-248.853550,9475.577496
24950.132645,-5417.350366,8346.165229,11734.402030
24950.135186,172.283227,-9303.294269,6508.477472
24950.137727,-133.998066,6010.770371,10777.272990
24950.140268,-2124.826469,7523.034254,11868.400096
24950.142809,803.988394,-12155.538808,5781.059402
24950.145350,440.279358,6412.764568,11064.411702
24950.147891,-3215.953574,6317.051664,11772.687192
24950.150432,612.562586,-11274.980091,5838.487144
24950.152973,363.709035,6508.477472,10949.556218
24950.155513,-1761.117434,7063.612315,11600.403965
24950.158054,746.560651,-7676.174901,6987.041992
24950.160595,1263.410333,3043.670347,10202.995566
24950.163136,-899.701298,6278.766502,11236.694930
24950.165677,-2105.683888,-727.418070,9265.009107
24950.168218,344.566454,-3751.945837,8020.741355
24950.170759,57.427742,3464.807125,10566.704602
24950.173300,-1091.127106,2469.392923,10222.138147
24950.175841,-1282.552914,-3139.383251,8346.165229
24950.178382,650.847747,1665.404530,9858.429112
24950.180923,-1531.406464,3771.088418,10643.274925
24950.183464,727.418070,-3101.098090,8327.022648
24950.186005,-133.998066,1244.267752,9667.003304
24950.188545,-2143.969050,4326.223261,10700.702667
24950.191086,-784.845813,-3885.943902,8307.880067
24950.193627,-1301.695494,-2316.252277,8250.452325
24950.196168,1914.258080,4421.936165,10719.845248
24950.198709,-191.425808,2488.535504,10413.563955
24950.201250,1263.410333,-3656.232933,8307.880067
24950.203791,-2373.680019,2488.535504,9992.427178
24950.206332,880.558717,2258.824534,10394.421374
24950.208873,-2584.248408,287.138712,9360.722011
24950.211413,1627.119368,-3885.943902,8001.598774
24950.213954,4096.512291,8901.300072,12308.679454
24950.216495,-4268.795518,-516.849682,9571.290400
24950.219036,4594.219392,-11428.120738,6068.198114
24950.221577,-3617.947771,12863.814298,13284.951075
24950.224118,-631.705166,-4747.360038,8537.591037
24950.226658,1856.830338,-11638.689126,6049.055533
24950.229199,2507.678085,5359.922624,10758.130410
24950.231740,-1416.550979,7848.458128,12155.538808
24950.234281,-114.855485,-10030.712339,6278.766502
24950.236822,1665.404530,3637.090352,10509.276859
24950.239363,-229.710970,5264.209720,11638.689126
24950.241903,1473.978722,-7350.751027,7197.610381
24950.244444,1110.269686,1071.984525,9513.862658
24950.246985,-1071.984525,4421.936165,11102.696864
24950.249526,-1091.127106,-2048.256146,8901.300072
24950.252067,1780.260014,-1148.554848,9054.440718
24950.254608,-95.712904,4364.508422,10777.272990
24950.257148,-650.847747,2239.681954,10298.708470
24950.259689,995.414202,-3541.377448,8403.592971
24950.262230,957.129040,1531.406464,9896.714274
24950.264771,-1454.836141,2718.246474,10394.421374
24950.267312,421.136778,-3866.801322,8327.022648
24950.269853,1550.549045,1129.412267,9896.714274
24950.272394,210.568389,1205.982590,10183.852986
24950.274934,363.709035,-2220.539373,8882.157491
24950.277475,-306.281293,1818.545176,10030.712339
24950.280016,-765.703232,38.285162,9571.290400
24950.282557,861.416136,-287.138712,9226.723946
24950.285098,842.273555,976.271621,9992.427178
24950.287639,1875.972918,1091.127106,9533.005238
24950.290179,-2507.678085,1588.834206,9973.284597
24950.292720,2833.101958,-2526.820666,9054.440718
24950.295261,-1493.121302,3617.947771,10490.134278
24950.297802,-3024.527766,-3809.373579,8039.883936
24950.300343,3866.801322,1301.695494,9839.286531
24950.302884,-6049.055533,6987.041992,11351.550414
24950.305424,957.129040,-9954.142016,6259.623922
24950.307964,-1761.117434,8231.309744,11485.548480
24950.310505,-1818.545176,4804.787781,10834.700733
24950.313045,1933.400661,-11408.978157,6049.055533
24950.315585,248.853550,9188.438784,12232.109131
24950.318125,-3483.949706,2641.676150,10700.702667
24950.320666,-918.843878,-8154.739421,6987.041992
24950.323206,1071.984525,-535.992262,8633.303941
24950.325746,-1569.691626,10872.985894,12672.388490
24950.328287,-57.427742,-4804.787781,8097.311678
24950.330827,880.558717,-2411.965181,8537.591037
24950.333367,-746.560651,5991.627790,11447.263318
24950.335908,-1646.261949,-784.845813,9226.723946
24950.338448,1052.841944,-2067.398726,8729.016845
24950.340988,-1033.699363,3254.238736,10528.419440
24950.343529,-842.273555,267.996131,9456.434915
24950.346069,459.421939,-1205.982590,8824.729749
24950.348609,-421.136778,3005.385186,10336.993632
24950.351150,-1435.693560,-344.566454,10126.425243
24950.353690,-689.132909,-1244.267752,8920.442653
24950.356230,133.998066,2507.678085,9934.999435
24950.358771,-497.707101,1454.836141,9934.999435
24950.361311,-1339.980656,-2067.398726,8671.589102
24950.363851,1799.402595,2737.389054,10317.851051
24950.366392,-574.277424,2871.387120,10356.136213
24950.368932,861.416136,-3407.379382,8307.880067
24950.371472,-1761.117434,2143.969050,9896.714274
24950.374013,1378.265818,3541.377448,10719.845248
24950.376553,-3522.234867,-1722.832272,8863.014910
24950.379093,2488.535504,-2507.678085,8537.591037
24950.381634,1607.976787,10183.852986,12557.533005
24950.384174,-3943.371645,6431.907149,11676.974288
24950.386714,3369.094221,-14605.789150,5130.211654
24950.389255,-1014.556782,8135.596840,11696.116869
24950.391795,-2526.820666,3062.812928,10930.413637
24950.394335,2335.394858,-11638.689126,5953.342629
24950.396876,1378.265818,9839.286531,12270.394293
24950.399416,-1167.697429,3158.525832,10643.274925
24950.401956,650.847747,-9188.438784,6393.621987
24950.404496,1110.269686,7982.456194,11983.255581
24950.407037,-650.847747,1531.406464,10604.989763
24950.409578,2029.113565,-8614.161360,6738.188442
24950.412118,363.709035,4460.221326,10662.417506
24950.414659,-918.843878,2871.387120,11198.409768
24950.417200,-784.845813,-803.988394,9284.151688
24950.419740,-76.570323,-2392.822600,8671.589102
24950.422281,535.992262,2239.681954,10088.140082
24950.424822,478.564520,2239.681954,10145.567824
24950.427362,708.275490,-1914.258080,9111.868461
24950.429903,248.853550,-516.849682,9533.005238
24950.432444,-976.271621,2297.109696,10202.995566
24950.434984,708.275490,-1225.125171,9054.440718
24950.437525,2086.541307,-1914.258080,9073.583299
24950.440066,-153.140646,3158.525832,10643.274925
24950.442606,-1052.841944,-689.132909,9379.864592
24950.445147,708.275490,-2163.111630,8824.729749
24950.447688,1512.263883,1320.838075,9590.432981
24950.450228,-995.414202,1914.258080,10107.282662
24950.452769,1971.685822,-1665.404530,9150.153622
24950.455310,-1665.404530,382.851616,9628.718142
24950.457850,2641.676150,57.427742,9762.716208
24950.460391,-3560.520029,153.140646,9265.009107
24950.462931,1627.119368,-3445.664544,8231.309744
24950.465472,363.709035,7312.465866,11772.687192
24950.468013,-5359.922624,-2163.111630,8671.589102
24950.470553,3369.094221,-5819.344563,7235.895542
24950.473094,-3579.662610,13438.091722,13227.523333
24950.475635,-95.712904,-5781.059402,7810.172966
24950.478175,3828.516160,-4919.643266,5819.344563
24950.480716,689.132909,8786.444587,11868.400096
24950.483257,-3713.660675,4460.221326,11198.409768
24950.485797,1282.552914,-11619.546546,5704.489078
24950.488338,114.855485,9150.153622,11810.972354
24950.490879,-2201.396792,5034.498750,10949.556218
24950.493419,708.275490,-8269.594906,6527.620053
24950.495960,172.283227,4728.217458,10815.558152
24950.498501,-1875.972918,4058.227130,10796.415571
24950.501041,-1205.982590,-5570.491013,7350.751027
24950.503582,1244.267752,1186.840010,9686.145885
24950.506123,-1339.980656,4441.078746,11255.837510
24950.508663,-344.566454,-2813.959378,8614.161360
24950.511203,-76.570323,-3254.238736,8135.596840
24950.513744,-593.420005,3598.805190,10394.421374
24950.516284,-2201.396792,1722.832272,9934.999435
24950.518824,574.277424,-2526.820666,8461.020714
24950.521365,95.712904,3369.094221,10413.563955
24950.523905,-1607.976787,689.132909,9590.432981
24950.526445,899.701298,-555.134843,9131.011042
24950.528986,-1052.841944,2297.109696,10279.565890
24950.531526,-459.421939,-1416.550979,8901.300072
24950.534067,-995.414202,19.142581,9226.723946
24950.536607,-708.275490,4383.651003,10509.276859
24950.539147,-3120.240670,-4364.508422,8173.882002
24950.541688,2373.680019,1799.402595,7752.745224
24950.544228,1071.984525,10375.278794,12538.390424
24950.546768,-2526.820666,-4709.074877,8250.452325
24950.549309,4938.785846,-7446.463931,7216.752962
24950.551849,-4555.934230,13418.949141,13591.232368
24950.554389,1875.972918,-8365.307810,7465.606512
24950.556930,1971.685822,-3024.527766,8384.450390
24950.559470,-823.130974,11045.269122,12825.529136
24950.562010,306.281293,-7389.036189,7197.610381
24950.564551,1646.261949,-612.562586,8901.300072
24950.567091,-2737.389054,8020.741355,12078.968485
24950.569632,-210.568389,-7733.602643,7369.893608
24950.572172,1895.115499,-650.847747,9303.294269
24950.574712,555.134843,5398.207786,11198.409768
24950.577253,-287.138712,1607.976787,10336.993632
24950.579793,-708.275490,-3560.520029,8231.309744
24950.582333,957.129040,2143.969050,10088.140082
24950.584874,210.568389,3445.664544,10700.702667
24950.587414,133.998066,-1378.265818,8901.300072
24950.589954,880.558717,-1971.685822,8843.872330
24950.592495,114.855485,2967.100024,10604.989763
24950.595035,-114.855485,-421.136778,9533.005238
24950.597575,2584.248408,-2871.387120,8786.444587
24950.600116,-478.564520,4115.654872,10700.702667
24950.602656,-1225.125171,-1359.123237,9092.725880
24950.605197,1033.699363,-2048.256146,8422.735552
24950.607737,516.849682,3215.953574,10317.851051
24950.610235,1186.840010,1741.974853,10164.710405
24950.612734,-478.564520,-1665.404530,8805.587168
24950.615232,401.994197,-727.418070,9379.864592
24950.617731,153.140646,3215.953574,10585.847182
24950.620229,-516.849682,-3675.375514,8614.161360
24950.622728,4115.654872,2105.683888,10068.997501
24950.625226,-5015.356170,4096.512291,10451.849117
24950.627725,1952.543242,-7063.612315,7293.323285
24950.630223,-1148.554848,9437.292334,12021.540742
24950.632722,-2373.680019,861.416136,9762.716208
24950.635220,2316.252277,-6719.045861,6987.041992
24950.637719,2316.252277,2584.248408,10183.852986
24950.640217,-3407.379382,7523.034254,11906.685258
24950.642716,-1473.978722,-10738.987829,6010.770371
24950.645214,363.709035,5302.494882,10796.415571
24950.647713,-2794.816797,5800.201982,11332.407834
24950.650211,1397.408398,-7542.176835,6738.188442
24950.652710,-421.136778,5857.629725,10700.702667
24950.655208,-1071.984525,3656.232933,10930.413637
24950.657707,-708.275490,-4957.928427,7848.458128
24950.660205,-57.427742,1818.545176,9686.145885
24950.662704,-593.420005,3062.812928,10604.989763
24950.665202,440.279358,-1627.119368,9111.868461
24950.667701,-191.425808,-57.427742,9169.296203
24950.670199,-1416.550979,1550.549045,9781.858789
24950.672698,-1875.972918,1531.406464,9724.431046
24950.675197,-689.132909,325.423874,9188.438784
24950.677695,708.275490,478.564520,9571.290400
24950.680194,-153.140646,1646.261949,9992.427178
24950.682692,-2660.818731,57.427742,9207.581365
24950.685191,497.707101,-1512.263883,9035.298138
24950.687689,-38.285162,3005.385186,10490.134278
24950.690188,440.279358,306.281293,9590.432981
24950.692686,-1722.832272,-1014.556782,8939.585234
24950.695185,2258.824534,3120.240670,10336.993632
24950.697683,-3196.810994,3751.945837,10394.421374
24950.700182,-3771.088418,-5225.924558,7771.887805
24950.702680,6680.760699,-1684.547110,9054.440718
24950.705179,-2220.539373,11772.687192,13246.665914
24950.707677,1703.689691,-12672.388490,5761.916821
24950.710185,440.279358,421.136778,9131.011042
24950.712693,-3081.955509,9341.579430,12806.386555
24950.715200,1052.841944,-9934.999435,6623.332957
24950.717708,2143.969050,3311.666478,10068.997501
24950.720216,-631.705166,8135.596840,12212.966550
24950.722723,191.425808,-8422.735552,6910.471669
24950.725231,1301.695494,3062.812928,10279.565890
24950.727739,-1875.972918,3656.232933,10892.128475
24950.730246,631.705166,-3598.805190,8729.016845
24950.732754,1052.841944,-2679.961312,8384.450390
24950.735262,306.281293,4421.936165,10968.698798
24950.737770,-1033.699363,-574.277424,9609.575562
24950.740277,-133.998066,-1416.550979,8786.444587
24950.742785,382.851616,1971.685822,9896.714274
24950.745293,1033.699363,823.130974,9743.573627
24950.747800,1282.552914,-1320.838075,9188.438784
24950.750308,899.701298,382.851616,9915.856854
24950.752816,-937.986459,-765.703232,9379.864592
24950.755323,-191.425808,0.000000,9303.294269
24950.757831,-267.996131,1301.695494,9915.856854
24950.760339,1282.552914,-1052.841944,9322.436850
24950.762846,1320.838075,-38.285162,9399.007173
24950.765354,612.562586,1761.117434,10145.567824
24950.767862,363.709035,957.129040,9781.858789
24950.770370,-1167.697429,-2660.818731,8709.874264
24950.772877,2009.970984,2201.396792,10202.995566
24950.775385,-2009.970984,-803.988394,9341.579430
24950.777893,4460.221326,-2124.826469,8901.300072
24950.780400,-3503.092286,7025.327154,11523.833642
24950.782908,-1588.834206,-5685.346498,7599.604578
24950.785416,1665.404530,3158.525832,9973.284597
24950.787923,-3235.096155,8020.741355,11734.402030
24950.790431,2660.818731,-8920.442653,6642.475538
24950.792939,3388.236802,-4996.213589,8097.311678
24950.795447,-2794.816797,11083.554283,12902.099459
24950.797954,-2967.100024,-6967.899411,7331.608446
24950.800462,1493.121302,-2067.398726,8499.305875
24950.802970,-2258.824534,10241.280728,12461.820101
24950.805477,382.851616,-5551.348432,7580.461997
24950.807985,133.998066,153.140646,8958.727814
24950.810500,-1205.982590,6565.905214,11830.114934
24950.813014,-1359.123237,-3081.955509,8480.163294
24950.815529,-267.996131,-1856.830338,8384.450390
24950.818044,-133.998066,3885.943902,10719.845248
24950.820559,-76.570323,421.136778,9781.858789
24950.823073,-153.140646,-1378.265818,9245.866526
24950.825588,-1071.984525,57.427742,9169.296203
24950.828103,-2009.970984,3311.666478,10222.138147
24950.830617,-248.853550,-248.853550,9226.723946
24950.833132,1148.554848,-363.709035,9207.581365
24950.835647,-2297.109696,2813.959378,9934.999435
24950.838162,-267.996131,-2354.537438,8901.300072
24950.840676,57.427742,1320.838075,10068.997501
24950.843191,325.423874,2277.967115,10241.280728
24950.845706,-2124.826469,-1818.545176,8595.018779
24950.848221,2469.392923,2679.961312,10145.567824
24950.850735,-3215.953574,4823.930362,10777.272990
24950.853250,1110.269686,-7503.891674,6987.041992
24950.855765,6278.766502,-1741.974853,9131.011042
24950.858279,-2679.961312,11217.552349,13131.810429
24950.860794,2392.822600,-12748.958813,5781.059402
24950.863309,-229.710970,1473.978722,9552.147819
24950.865824,-2239.681954,8097.311678,12289.536874
24950.868338,1588.834206,-9628.718142,6699.903280
24950.870853,1225.125171,4651.647134,10451.849117
24950.873368,-899.701298,5876.772306,11485.548480
24950.875882,708.275490,-7752.745224,6948.756830
24950.878397,-153.140646,4096.512291,10547.562021
24950.880912,-1186.840010,1301.695494,10298.708470
24950.883427,2086.541307,-5379.065205,7867.600709
24950.885941,861.416136,3369.094221,9303.294269
24950.888456,669.990328,3101.098090,10662.417506
24950.890971,-689.132909,-1244.267752,9169.296203
24950.893485,-421.136778,-306.281293,9226.723946
24950.896000,440.279358,1799.402595,9973.284597
24950.898515,957.129040,229.710970,9513.862658
24950.901030,1359.123237,-1301.695494,9284.151688
24950.903544,842.273555,-325.423874,9781.858789
24950.906059,-1282.552914,401.994197,9667.003304
24950.908574,-918.843878,-210.568389,9284.151688
24950.911095,1416.550979,-133.998066,9475.577496
24950.913616,133.998066,2277.967115,10068.997501
24950.916137,1435.693560,-210.568389,9418.149754
24950.918658,-1627.119368,-153.140646,9341.579430
24950.921179,-95.712904,-1990.828403,8901.300072
24950.923700,-1014.556782,3158.525832,10394.421374
24950.926221,1205.982590,-2603.390989,9131.011042
24950.928742,3254.238736,2201.396792,10202.995566
24950.931263,-4977.071008,1205.982590,9590.432981
24950.933784,3311.666478,-4115.654872,8307.880067
24950.936305,-3885.943902,9801.001370,12040.683323
24950.938826,-1646.261949,-3981.656806,8154.739421
24950.941347,1531.406464,-1761.117434,8518.448456
24950.943868,-1052.841944,9992.427178,12423.534939
24950.946389,306.281293,-8403.592971,7312.465866
24950.948910,-210.568389,-210.568389,6317.051664
24950.951431,-1531.406464,10030.712339,12289.536874
24950.953952,-1703.689691,-535.992262,9456.434915
24950.956473,2239.681954,-5206.781978,7427.321350
24950.958994,-842.273555,9686.145885,12155.538808
24950.961515,-918.843878,-976.271621,9609.575562
24950.964036,-287.138712,-4077.369710,7982.456194
24950.966557,-937.986459,4670.789715,10681.560086
24950.969078,-1033.699363,-38.285162,9379.864592
24950.971599,344.566454,-2239.681954,8595.018779
24950.974120,-593.420005,2718.246474,10356.136213
24950.976641,-1875.972918,1493.121302,9781.858789
24950.979162,-1148.554848,-612.562586,8882.157491
24950.981683,803.988394,612.562586,9475.577496
24950.984204,-708.275490,2163.111630,9954.142016
24950.986725,612.562586,899.701298,9590.432981
24950.989246,-899.701298,-727.418070,9360.722011
24950.991767,-1014.556782,-306.281293,9418.149754
24950.994288,-727.418070,382.851616,9552.147819
24950.996809,-2392.822600,2239.681954,9743.573627
24950.999330,-0.000000,-3407.379382,8231.309744
24951.001851,1780.260014,6183.053598,11255.837510
24951.004372,-5436.492947,19.142581,9341.579430
24951.006893,5781.059402,-7331.608446,7465.606512
24951.009414,-153.140646,11198.409768,13055.240106
24951.011940,-3924.229064,6527.620053,11964.113000
24951.014466,2679.961312,-11868.400096,6029.912952
24951.016991,-497.707101,6451.049730,11294.122672
24951.019517,-1301.695494,4287.938099,10796.415571
24951.022043,1761.117434,-8059.026517,6680.760699
24951.024569,1263.410333,6833.901346,11466.405899
24951.027094,-1665.404530,937.986459,10145.567824
24951.029620,631.705166,-5187.639397,7752.745224
24951.032146,95.712904,3330.809059,10585.847182
24951.034672,918.843878,325.423874,9973.284597
24951.037197,803.988394,-2507.678085,8614.161360
24951.039723,976.271621,1607.976787,9820.143950
24951.042249,-823.130974,1397.408398,10107.282662
24951.044774,-344.566454,516.849682,9647.860723
24951.047300,516.849682,-267.996131,9379.864592
24951.049826,2143.969050,306.281293,9686.145885
24951.052352,-76.570323,-153.140646,9801.001370
24951.054877,-440.279358,-1531.406464,9150.153622
24951.057403,-325.423874,880.558717,9724.431046
24951.059929,95.712904,516.849682,9705.288466
24951.062455,516.849682,57.427742,9418.149754
24951.064980,2105.683888,1205.982590,9992.427178
24951.067506,-1818.545176,-19.142581,9437.292334
24951.070032,440.279358,-2488.535504,8709.874264
24951.072557,-1837.687757,3637.090352,10470.991698
24951.075083,114.855485,-784.845813,9533.005238
24951.077609,3943.371645,516.849682,9743.573627
24951.080135,-4632.504554,2354.537438,9896.714274
24951.082660,2507.678085,-4536.791650,8173.882002
24951.085186,-2431.107762,8805.587168,11887.542677
24951.087712,-2392.822600,-937.986459,9092.725880
24951.090238,2277.967115,-4287.938099,7676.174901
24951.092763,-650.847747,10011.569758,12366.107197
24951.095289,-382.851616,-5895.914886,8154.739421
24951.097815,1129.412267,-3503.092286,8154.739421
24951.100340,-3062.812928,10183.852986,12538.390424
24951.102866,-267.996131,-6508.477472,7561.319416
24951.105392,1741.974853,57.427742,7140.182638
24951.107918,-478.564520,8059.026517,11466.405899
24951.110443,-1052.841944,1397.408398,10298.708470
24951.112973,-823.130974,-4632.504554,7867.600709
24951.115502,-1071.984525,2699.103893,10068.997501
24951.118031,-631.705166,1454.836141,9762.716208
24951.120561,57.427742,-1282.552914,8939.585234
24951.123090,-497.707101,1186.840010,9839.286531
24951.125619,-1129.412267,2163.111630,10049.854920
24951.128149,-1244.267752,363.709035,9226.723946
24951.130678,-57.427742,210.568389,9322.436850
24951.133207,-1799.402595,2469.392923,9915.856854
24951.135737,76.570323,-1359.123237,9035.298138
24951.138266,-287.138712,-1684.547110,8901.300072
24951.140796,267.996131,2584.248408,10394.421374
24951.143325,-3522.234867,727.418070,9456.434915
24951.145854,2316.252277,-3273.381317,8461.020714
24951.148384,-535.992262,8518.448456,11676.974288
24951.150913,-1952.543242,-4766.502619,7905.885870
24951.153442,6489.334891,191.425808,9628.718142
24951.155972,-3694.518094,9111.868461,12500.105262
24951.158501,2794.816797,-12882.956878,5819.344563
24951.161030,-1244.267752,3962.514226,10375.278794
24951.163560,-1052.841944,5819.344563,11657.831707
24951.166089,2335.394858,-9781.858789,6642.475538
24951.168618,842.273555,6259.623922,8173.882002
24951.171148,-363.709035,8977.870395,12366.107197
24951.173677,-306.281293,-4728.217458,8212.167163
24951.176206,421.136778,-1741.974853,8652.446522
24951.178736,95.712904,5091.926493,11217.552349
24951.181265,555.134843,-3177.668413,8863.014910
24951.183794,1799.402595,-2029.113565,8805.587168
24951.186324,-95.712904,3158.525832,10547.562021
24951.188853,-535.992262,344.566454,9628.718142
24951.191382,-287.138712,-1148.554848,9150.153622
24951.193912,899.701298,1129.412267,9896.714274
24951.196441,1148.554848,459.421939,9686.145885
24951.198970,669.990328,-1052.841944,9207.581365
24951.201500,-76.570323,-708.275490,9513.862658
24951.204029,57.427742,210.568389,9743.573627
24951.206558,-861.416136,478.564520,9571.290400
24951.209088,976.271621,-133.998066,9226.723946
24951.211617,2105.683888,459.421939,9954.142016
24951.214150,382.851616,2603.390989,10490.134278
24951.216683,-1186.840010,-2182.254211,8882.157491
24951.219216,1646.261949,1129.412267,9628.718142
24951.221749,-1722.832272,287.138712,9533.005238
24951.224282,4268.795518,-1167.697429,9322.436850
24951.226815,-3464.807125,4421.936165,10738.987829
24951.229348,-612.562586,-5072.783912,7905.885870
24951.231881,2794.816797,5455.635528,8212.167163
24951.234414,-3158.525832,10202.995566,12040.683323
24951.236947,1205.982590,-5034.498750,7886.743290
24951.239480,2584.248408,-1780.260014,8997.012976
24951.242013,-3522.234867,8614.161360,12232.109131
24951.244546,-2143.969050,-8518.448456,6776.473603
24951.247079,95.712904,2048.256146,9628.718142
24951.249612,-1933.400661,6910.471669,11657.831707
24951.252145,1454.836141,-5857.629725,7503.891674
24951.254678,153.140646,3541.377448,9954.142016
24951.257211,-1473.978722,4077.369710,10968.698798
24951.259744,-1454.836141,-3694.518094,8422.735552
24951.262277,-95.712904,803.988394,9360.722011
24951.264810,-153.140646,2699.103893,10164.710405
24951.267343,-899.701298,1186.840010,9839.286531
24951.269876,-38.285162,-1282.552914,8997.012976
24951.272409,-114.855485,2469.392923,9992.427178
24951.274942,-2239.681954,2067.398726,9839.286531
24951.277475,-1339.980656,-765.703232,8805.587168
24951.280008,669.990328,19.142581,9533.005238
24951.282541,287.138712,2373.680019,10183.852986
24951.285074,114.855485,-229.710970,9571.290400
24951.287607,-1990.828403,-631.705166,9341.579430
24951.290140,1512.263883,2105.683888,10164.710405
24951.292673,-3273.381317,3235.096155,10088.140082
24951.295206,-2124.826469,-4345.365842,7867.600709
24951.297739,7121.040058,669.990328,9877.571693
24951.300272,-3254.238736,8843.872330,12538.390424
24951.302805,2411.965181,-12538.390424,5895.914886
24951.305338,-957.129040,3464.807125,10126.425243
24951.307871,-1339.980656,6183.053598,11830.114934
24951.310405,2297.109696,-9762.716208,6738.188442
24951.312938,1263.410333,5589.633594,10719.845248
24951.315473,-803.988394,4517.649069,11006.983960
24951.318009,555.134843,-6623.332957,7427.321350
24951.320545,-95.712904,3215.953574,10490.134278
24951.323081,-1416.550979,2086.541307,10298.708470
24951.325616,937.986459,-5111.069074,7963.313613
24951.328152,2277.967115,-1225.125171,8997.012976
24951.330688,-0.000000,3522.234867,10681.560086
24951.333224,-727.418070,-1320.838075,9054.440718
24951.335760,401.994197,-899.701298,9150.153622
24951.338295,76.570323,2277.967115,10202.995566
24951.340831,727.418070,-1378.265818,9150.153622
24951.343367,516.849682,0.000000,9475.577496
24951.345903,172.283227,1282.552914,10126.425243
24951.348439,669.990328,-1684.547110,9207.581365
24951.350974,-669.990328,1703.689691,9762.716208
24951.353510,689.132909,-57.427742,9322.436850
24951.356046,-957.129040,-1741.974853,8939.585234
24951.358582,497.707101,-1933.400661,8901.300072
24951.361118,-1205.982590,3962.514226,10585.847182
24951.363653,1512.263883,-2565.105827,9035.298138
24951.366189,1359.123237,2431.107762,10298.708470
24951.368725,-4900.500685,-267.996131,9188.438784
24951.371261,3694.518094,-2622.533570,8767.302006
24951.373797,-5072.783912,7963.313613,11466.405899
24951.376332,-114.855485,-5876.772306,7599.604578
24951.378868,-38.285162,2277.967115,9667.003304
24951.381404,-2163.111630,7791.030386,11676.974288
24951.383940,2048.256146,-8480.163294,7274.180704
24951.386476,114.855485,4517.649069,10681.560086
24951.389011,-3483.949706,4077.369710,9475.577496
24951.391547,-421.136778,-4096.512291,8365.307810
24951.394083,1167.697429,-1148.554848,8767.302006
24951.396621,-1320.838075,7771.887805,11523.833642
24951.399158,-401.994197,-2813.959378,8652.446522
24951.401696,-1167.697429,-899.701298,8977.870395
24951.404233,-612.562586,2737.389054,10356.136213
24951.406771,-555.134843,-172.283227,9341.579430
24951.409308,-612.562586,-421.136778,9073.583299
24951.411846,76.570323,1359.123237,9915.856854
24951.414383,-823.130974,2258.824534,10011.569758
24951.416921,-1607.976787,-267.996131,9111.868461
24951.419459,-1129.412267,1244.267752,9475.577496
24951.421996,-267.996131,1186.840010,9839.286531
24951.424534,-478.564520,-306.281293,9245.866526
24951.427071,842.273555,172.283227,9437.292334
24951.429609,-3407.379382,2431.107762,9992.427178
24951.432146,1071.984525,-3254.238736,8595.018779
24951.434684,-440.279358,5800.201982,10930.413637
24951.437222,-1856.830338,-2545.963246,8422.735552
24951.439759,6642.475538,-76.570323,9571.290400
24951.442297,-2967.100024,7963.313613,12155.538808
24951.444834,2699.103893,-11006.983960,6393.621987
24951.447372,-1473.978722,2928.814862,10088.140082
24951.449909,-995.414202,5493.920690,11485.548480
24951.452447,2469.392923,-8786.444587,8843.872330
24951.454984,1914.258080,-2756.531635,8231.309744
24951.457522,-172.283227,7867.600709,11868.400096
24951.460060,-153.140646,-3541.377448,8556.733618
24951.462597,248.853550,-2067.398726,8633.303941
24951.465135,-1052.841944,3560.520029,10662.417506
24951.467672,823.130974,-2239.681954,9092.725880
24951.470210,2124.826469,-382.851616,9360.722011
24951.472747,803.988394,2105.683888,10183.852986
24951.475285,-880.558717,-976.271621,8997.012976
24951.477823,133.998066,-555.134843,9303.294269
24951.480360,57.427742,2277.967115,10260.423309
24951.482898,38.285162,-1091.127106,9265.009107
24951.485435,516.849682,-2258.824534,8901.300072
24951.487973,1799.402595,1225.125171,10183.852986
24951.490510,-1244.267752,1205.982590,9839.286531
24951.493048,210.568389,-2488.535504,8614.161360
24951.495585,-363.709035,325.423874,9590.432981
24951.498125,1550.549045,2967.100024,10566.704602
24951.500664,-1205.982590,-1435.693560,9016.155557
24951.503204,3349.951640,-689.132909,9284.151688
24951.505743,-3139.383251,2392.822600,10068.997501
24951.508283,1741.974853,-3675.375514,8441.878133
24951.510822,-1416.550979,5742.774240,11198.409768
24951.513362,-3617.947771,-2488.535504,8652.446522
24951.515901,3005.385186,-1799.402595,6948.756830
24951.518441,-1761.117434,8154.739421,11600.403965
24951.520980,-1339.980656,1837.687757,9934.999435
24951.523520,2545.963246,-7121.040058,7446.463931
24951.526059,-2603.390989,8537.591037,12002.398162
24951.528599,-2813.959378,-2469.392923,8882.157491
24951.531138,727.418070,-3924.229064,7982.456194
24951.533678,-765.703232,7235.895542,11638.689126
24951.536217,-57.427742,-1225.125171,9092.725880
24951.538757,76.570323,-1167.697429,8652.446522
24951.541296,-1339.980656,4173.082614,10700.702667
24951.543836,-1493.121302,-1225.125171,9131.011042
24951.546375,-344.566454,-248.853550,9073.583299
24951.548915,-19.142581,1569.691626,9858.429112
24951.551454,57.427742,1493.121302,10030.712339
24951.553994,-478.564520,-95.712904,9188.438784
24951.556533,-1990.828403,1359.123237,9456.434915
24951.559073,19.142581,2373.680019,10030.712339
24951.561612,-478.564520,497.707101,9628.718142
24951.564152,-38.285162,-1607.976787,8767.302006
24951.566691,708.275490,1397.408398,9992.427178
24951.569231,-4000.799387,2163.111630,9934.999435
24951.571770,689.132909,-5149.354235,8039.883936
24951.574310,650.847747,7025.327154,11313.265253
24951.576849,-3694.518094,-803.988394,8977.870395
24951.579389,4039.084549,-9915.856854,6642.475538
24951.581928,2277.967115,6814.758765,11676.974288
24951.584468,-2699.103893,1244.267752,10317.851051
24951.587007,784.845813,-9973.284597,6451.049730
24951.589547,-1186.840010,8173.882002,11944.970419
24951.592086,631.705166,421.136778,10011.569758
24951.594626,1646.261949,-5455.635528,7465.606512
24951.597165,612.562586,7216.752962,11638.689126
24951.599707,-382.851616,-1091.127106,9456.434915
24951.602247,-191.425808,-3388.236802,8231.309744
24951.604788,-38.285162,2699.103893,10298.708470
24951.607329,-57.427742,172.283227,9839.286531
24951.609869,727.418070,-2507.678085,8709.874264
24951.612410,2335.394858,-1550.549045,8997.012976
24951.614951,-784.845813,4211.367776,10662.417506
24951.617491,-784.845813,-2316.252277,8748.159426
24951.620032,1493.121302,-1282.552914,8997.012976
24951.622572,191.425808,4632.504554,11083.554283
24951.625113,899.701298,-3866.801322,8671.589102
24951.627654,1263.410333,-823.130974,9341.579430
24951.630194,-899.701298,4383.651003,10872.985894
24951.632735,1359.123237,-3464.807125,8614.161360
24951.635276,-38.285162,1799.402595,9801.001370
24951.637816,191.425808,1512.263883,10088.140082
24951.640357,1052.841944,-267.996131,9303.294269
24951.642897,-2392.822600,-2048.256146,8748.159426
24951.645438,3694.518094,995.414202,9896.714274
24951.647979,-3962.514226,5264.209720,11140.982026
24951.650519,-1110.269686,-7484.749093,7025.327154
24951.653060,2488.535504,5532.205851,10777.272990
24951.655601,-2775.674216,7733.602643,11657.831707
24951.658141,2086.541307,-9762.716208,6278.766502
24951.660682,401.994197,6049.055533,10930.413637
24951.663222,-2833.101958,3713.660675,10815.558152
24951.665763,172.283227,-9245.866526,6355.336826
24951.668304,-1052.841944,7618.747158,11715.259450
24951.670844,-1110.269686,1550.549045,10336.993632
24951.673385,1607.976787,-4900.500685,7752.745224
24951.675926,-153.140646,1435.693560,9131.011042
24951.678466,-803.988394,4019.941968,10853.843314
24951.681007,-1339.980656,-2220.539373,8805.587168
24951.683548,-191.425808,114.855485,9226.723946
24951.686088,-861.416136,3024.527766,10375.278794
24951.688629,-114.855485,-1091.127106,9188.438784
24951.691169,-172.283227,650.847747,9494.720077
24951.693710,-2488.535504,2890.529701,9896.714274
24951.696251,114.855485,-133.998066,9131.011042
24951.698791,689.132909,1856.830338,10107.282662
24951.701333,-574.277424,267.996131,9456.434915
24951.703875,-114.855485,-2163.111630,8709.874264
24951.706417,-574.277424,2220.539373,10107.282662
24951.708959,-4077.369710,669.990328,9781.858789
24951.711501,3426.521963,-2182.254211,8690.731683
24951.714043,-2469.392923,7350.751027,11198.409768
24951.716585,976.271621,-7216.752962,7331.608446
24951.719127,3579.662610,899.701298,9954.142016
24951.721669,-3924.229064,6393.621987,11772.687192
24951.724211,1052.841944,-9571.290400,6795.616184
24951.726753,-114.855485,3235.096155,10451.849117
24951.729295,76.570323,5302.494882,11274.980091
24951.731837,1167.697429,-6431.907149,7331.608446
24951.734379,1186.840010,3790.230998,10509.276859
24951.736921,-727.418070,2124.826469,10509.276859
24951.739463,-459.421939,-1282.552914,9245.866526
24951.742005,287.138712,-2297.109696,8633.303941
24951.744547,1320.838075,2373.680019,10279.565890
24951.747089,-229.710970,-325.423874,9552.147819
24951.749631,1014.556782,-459.421939,9341.579430
24951.752173,-555.134843,1339.980656,9839.286531
24951.754715,57.427742,-248.853550,9360.722011
24951.757257,248.853550,76.570323,9552.147819
24951.759799,1263.410333,210.568389,9801.001370
24951.762341,803.988394,-1512.263883,9265.009107
24951.764883,38.285162,1378.265818,9992.427178
24951.767425,937.986459,114.855485,9705.288466
24951.769967,-899.701298,1014.556782,9724.431046
24951.772509,363.709035,-2373.680019,8690.731683
24951.775051,-57.427742,4173.082614,10528.419440
24951.777593,1301.695494,-1550.549045,9303.294269
24951.780135,2009.970984,1071.984525,9820.143950
24951.782677,-5551.348432,459.421939,9360.722011
24951.785219,3369.094221,-2928.814862,8786.444587
24951.787761,-3924.229064,7676.174901,11485.548480
24951.790303,-401.994197,-4364.508422,7982.456194
24951.792845,401.994197,689.132909,9188.438784
24951.795387,-2067.398726,8690.731683,11964.113000
24951.797929,1435.693560,-6910.471669,7714.460062
24951.800471,-114.855485,1914.258080,9686.145885
24951.803014,-1895.115499,7369.893608,11619.546546
24951.805557,-421.136778,-2105.683888,9150.153622
24951.808100,957.129040,-1493.121302,8767.302006
24951.810643,-1263.410333,5685.346498,10777.272990
24951.813186,19.142581,-1186.840010,9131.011042
24951.815728,-880.558717,95.712904,9303.294269
24951.818271,-363.709035,937.986459,9705.288466
24951.820814,-440.279358,363.709035,9437.292334
24951.823357,-765.703232,1359.123237,9781.858789
24951.825900,-344.566454,-133.998066,9418.149754
24951.828443,-1990.828403,2679.961312,9858.429112
24951.830986,-899.701298,95.712904,9188.438784
24951.833529,650.847747,-1071.984525,9131.011042
24951.836071,612.562586,2622.533570,10241.280728
24951.838614,-2488.535504,76.570323,9609.575562
24951.841157,1627.119368,-1225.125171,9207.581365
24951.843700,-3866.801322,4287.938099,10643.274925
24951.846243,2526.820666,-3771.088418,8212.167163
24951.848786,1282.552914,6163.911018,10987.841379
24951.851329,-2239.681954,-2641.676150,8805.587168
24951.853872,4096.512291,-4957.928427,8078.169098
24951.856414,-3847.658741,9437.292334,12519.247843
24951.858957,957.129040,-6680.760699,7829.315547
24951.861500,1359.123237,-3101.098090,8537.591037
24951.864043,650.847747,9188.438784,11332.407834
24951.866586,-746.560651,1971.685822,10298.708470
24951.869129,976.271621,-5589.633594,7599.604578
24951.871672,-363.709035,3675.375514,10624.132344
24951.874215,-325.423874,1416.550979,10222.138147
24951.876757,440.279358,-3943.371645,8231.309744
24951.879300,1397.408398,1263.410333,9743.573627
24951.881843,421.136778,1914.258080,10298.708470
24951.884386,-689.132909,-497.707101,9456.434915
24951.886929,191.425808,-1301.695494,9054.440718
24951.889472,287.138712,2182.254211,10222.138147
24951.892015,172.283227,267.996131,9705.288466
24951.894558,2220.539373,-3254.238736,8824.729749
24951.897100,746.560651,38.285162,9533.005238
24951.899643,-210.568389,2679.961312,10451.849117
24951.902186,-1837.687757,-3292.523898,8537.591037
24951.904729,1914.258080,-650.847747,9073.583299
24951.907273,-1875.972918,5149.354235,11026.126541
24951.909816,2928.814862,-3541.377448,8671.589102
24951.912359,-2201.396792,689.132909,9533.005238
24951.914902,-918.843878,-842.273555,9265.009107
24951.917446,-95.712904,3905.086483,10758.130410
24951.919989,-4747.360038,-1761.117434,8767.302006
24951.922532,3483.949706,-3617.947771,8001.598774
24951.925075,-2947.957443,11006.983960,12442.677520
24951.927619,-2660.818731,3158.525832,11274.980091
24951.930162,2507.678085,-9226.723946,6872.186507
24951.932705,-1263.410333,6527.620053,11198.409768
24951.935248,-3330.809059,1933.400661,10068.997501
24951.937792,746.560651,-6642.475538,7255.038123
24951.940335,-593.420005,5704.489078,11045.269122
24951.942878,-746.560651,2201.396792,10222.138147
24951.945421,-421.136778,-2584.248408,8212.167163
24951.947965,-497.707101,2622.533570,10107.282662
24951.950508,-1282.552914,823.130974,9801.001370
24951.953051,-727.418070,-765.703232,8939.585234
24951.955594,-344.566454,1014.556782,9743.573627
24951.958138,-937.986459,1301.695494,9820.143950
24951.960681,-574.277424,2469.392923,9992.427178
24951.963224,-650.847747,-76.570323,9226.723946
24951.965768,-95.712904,-382.851616,9150.153622
24951.968311,153.140646,2947.957443,10490.134278
24951.970854,-2392.822600,-287.138712,9456.434915
24951.973397,2679.961312,-1512.263883,9054.440718
24951.975941,-3254.238736,5455.635528,10872.985894
24951.978484,1244.267752,-4575.076811,7944.171032
24951.981027,3713.660675,5245.067139,10968.698798
24951.983570,-3292.523898,918.843878,9896.714274
24951.986114,3790.230998,-8020.741355,7255.038123
24951.988657,-2641.676150,9245.866526,12404.392358
24951.991200,-267.996131,5876.772306,11581.261384
24951.993743,2009.970984,-8805.587168,7121.040058
24951.996287,803.988394,4115.654872,10279.565890
24951.998830,-689.132909,4957.928427,11140.982026
24952.001373,765.703232,-5761.916821,7676.174901
24952.003916,191.425808,1531.406464,9934.999435
24952.006460,-191.425808,2813.959378,10662.417506
24952.009004,-0.000000,-3637.090352,8384.450390
24952.011549,1607.976787,306.281293,9360.722011
24952.014093,191.425808,2239.681954,10317.851051
24952.016637,-823.130974,-574.277424,9303.294269
24952.019181,229.710970,-727.418070,9226.723946
24952.021725,535.992262,1722.832272,10145.567824
24952.024269,957.129040,842.273555,10068.997501
24952.026813,-95.712904,-1914.258080,9111.868461
24952.029357,459.421939,95.712904,9571.290400
24952.031901,440.279358,555.134843,9877.571693
24952.034445,401.994197,1933.400661,9915.856854
24952.036990,76.570323,-918.843878,9111.868461
24952.039534,1646.261949,1473.978722,9820.143950
24952.042078,-823.130974,-133.998066,9494.720077
24952.044622,3120.240670,631.705166,9705.288466
24952.047166,-4766.502619,1684.547110,9762.716208
24952.049710,1741.974853,-4689.932296,8231.309744
24952.052254,-1148.554848,8231.309744,11830.114934
24952.054798,-2488.535504,8288.737486,11619.546546
24952.057342,1359.123237,-7235.895542,7025.327154
24952.059886,172.283227,2928.814862,10030.712339
24952.062430,-2220.539373,4957.928427,11217.552349
24952.064975,-38.285162,-7408.178770,7063.612315
24952.067519,-1014.556782,4460.221326,10566.704602
24952.070063,-1282.552914,2737.389054,10566.704602
24952.072607,823.130974,-3483.949706,8193.024582
24952.075151,-287.138712,3560.520029,10088.140082
24952.077695,306.281293,2201.396792,10413.563955
24952.080239,-1244.267752,-631.705166,9054.440718
24952.082783,-325.423874,-382.851616,9226.723946
24952.085327,-957.129040,1703.689691,9896.714274
24952.087871,-1684.547110,2718.246474,10126.425243
24952.090415,133.998066,459.421939,9379.864592
24952.092960,516.849682,497.707101,9418.149754
24952.095504,-1569.691626,1569.691626,9762.716208
24952.098048,401.994197,842.273555,9743.573627
24952.100592,-2086.541307,114.855485,9552.147819
24952.103136,1933.400661,229.710970,9590.432981
24952.105680,-3081.955509,3062.812928,10260.423309
24952.108224,1933.400661,-3560.520029,8384.450390
24952.110769,2967.100024,5991.627790,11274.980091
24952.113313,-2890.529701,-1627.119368,9169.296203
24952.115858,3617.947771,-6240.481341,7733.602643
24952.118402,-478.564520,4000.799387,10681.560086
24952.120947,-114.855485,4268.795518,11217.552349
24952.123491,2182.254211,-8977.870395,6910.471669
24952.126036,689.132909,5053.641331,10585.847182
24952.128580,-1167.697429,4153.940034,10853.843314
24952.131125,746.560651,-6144.768437,7503.891674
24952.133669,382.851616,2220.539373,10279.565890
24952.136213,-210.568389,2565.105827,10585.847182
24952.138758,114.855485,-3598.805190,8461.020714
24952.141302,1301.695494,114.855485,9399.007173
24952.143847,823.130974,2507.678085,10490.134278
24952.146391,-401.994197,172.283227,9513.862658
24952.148936,440.279358,-1473.978722,8977.870395
24952.151480,1627.119368,-669.990328,9418.149754
24952.154025,153.140646,1244.267752,10107.282662
24952.156569,-76.570323,-1167.697429,9207.581365
24952.159114,1550.549045,-440.279358,9533.005238
24952.161658,-2220.539373,421.136778,9552.147819
24952.164202,765.703232,-1052.841944,8977.870395
24952.166747,-1129.412267,2622.533570,10011.569758
24952.169291,3024.527766,-976.271621,9456.434915
24952.171836,-2813.959378,210.568389,9475.577496
24952.174380,-612.562586,-1952.543242,8882.157491
24952.176925,-38.285162,5053.641331,10968.698798
24952.179469,-4575.076811,-2316.252277,8671.589102
24952.182014,937.986459,-7886.743290,6738.188442
24952.184558,-1225.125171,6872.186507,11160.124606
24952.187103,-2048.256146,5417.350366,11140.982026
24952.189647,1741.974853,-8365.307810,7101.897477
24952.192191,-995.414202,5742.774240,11102.696864
24952.194736,-3292.523898,1799.402595,10145.567824
24952.197280,-57.427742,-6010.770371,7293.323285
24952.199825,-459.421939,4938.785846,10777.272990
24952.202369,-1033.699363,2373.680019,10164.710405
24952.204914,-172.283227,-2775.674216,8288.737486
24952.207458,-210.568389,2603.390989,10049.854920
24952.210003,-1512.263883,1225.125171,9896.714274
24952.212547,-1339.980656,-421.136778,9265.009107
24952.215092,-1033.699363,-76.570323,9226.723946
24952.217636,95.712904,3407.379382,10432.706536
24952.220180,-803.988394,478.564520,9494.720077
24952.222725,57.427742,-1263.410333,8671.589102
24952.225269,-325.423874,4039.084549,10643.274925
24952.227814,-2852.244539,-612.562586,9437.292334
24952.230358,1320.838075,-1359.123237,9054.440718
24952.232903,-3005.385186,3943.371645,10432.706536
24952.235447,3101.098090,-2239.681954,8863.014910
24952.237992,-918.843878,4383.651003,10681.560086
24952.240536,-535.992262,-4862.215523,8135.596840
24952.243080,3215.953574,-133.998066,9437.292334
24952.245625,-2584.248408,7963.313613,11849.257515
24952.248169,976.271621,-2182.254211,9303.294269
24952.250714,2565.105827,-6489.334891,7676.174901
24952.253258,267.996131,8078.169098,11734.402030
24952.255803,-937.986459,-1071.984525,9054.440718
24952.258347,1167.697429,-4268.795518,7982.456194
24952.260892,-172.283227,5072.783912,11294.122672
24952.263436,248.853550,-363.709035,9667.003304
24952.265980,1071.984525,-3273.381317,8365.307810
24952.268525,593.420005,2124.826469,10107.282662
24952.271069,-248.853550,478.564520,9820.143950
24952.273614,210.568389,-1091.127106,9035.298138
24952.276158,784.845813,-535.992262,9226.723946
24952.278703,1186.840010,746.560651,9973.284597
24952.281247,-267.996131,-765.703232,9533.005238
24952.283792,401.994197,-1263.410333,9188.438784
24952.286336,1799.402595,1033.699363,10260.423309
24952.288881,-1856.830338,1129.412267,9858.429112
24952.291425,880.558717,-2852.244539,8480.163294
24952.293969,-497.707101,4000.799387,10317.851051
24952.296514,1741.974853,-612.562586,9762.716208
24952.299058,-229.710970,784.845813,9820.143950
24952.301603,-4019.941968,-2029.113565,8633.303941
24952.304147,2737.389054,1512.263883,9858.429112
24952.306692,-5513.063270,4326.223261,10509.276859
24952.309236,-1282.552914,-3081.955509,8327.022648
24952.311781,1205.982590,-2373.680019,8231.309744
24952.314326,-1588.834206,10260.423309,12385.249778
24952.316871,937.986459,-4670.789715,8365.307810
24952.319416,842.273555,-2641.676150,8556.733618
24952.321961,-2469.392923,7542.176835,11753.544611
24952.324505,-1071.984525,-4039.084549,8231.309744
24952.327050,899.701298,-689.132909,8843.872330
24952.329595,-976.271621,6297.909083,11389.835576
24952.332140,-727.418070,-1091.127106,9054.440718
24952.334685,-229.710970,-1473.978722,8690.731683
24952.337230,-535.992262,2775.674216,10183.852986
24952.339775,-2105.683888,2737.389054,10164.710405
24952.342320,-1933.400661,-287.138712,9111.868461
24952.344865,880.558717,-823.130974,9150.153622
24952.347409,803.988394,3981.656806,10585.847182
24952.349954,-1971.685822,784.845813,9379.864592
24952.352499,-497.707101,-3541.377448,8231.309744
24952.355044,-2718.246474,4000.799387,10470.991698
24952.357589,-1799.402595,-1454.836141,9092.725880
24952.360134,2813.959378,497.707101,9360.722011
24952.362679,-3866.801322,3177.668413,10202.995566
24952.365224,4728.217458,-4938.785846,8499.305875
24952.367769,-95.712904,6278.766502,11313.265253
24952.370313,-650.847747,-4249.652938,10949.556218
24952.372858,899.701298,-8786.444587,6948.756830
24952.375403,153.140646,4192.225195,10930.413637
24952.377948,689.132909,4421.936165,11140.982026
24952.380493,784.845813,-6929.614250,7063.612315
24952.383038,1493.121302,5111.069074,10892.128475
24952.385583,-1435.693560,2718.246474,10585.847182
24952.388128,1014.556782,-6470.192310,7523.034254
24952.390673,95.712904,2105.683888,9992.427178
24952.393218,-172.283227,3694.518094,10872.985894
24952.395762,57.427742,-3311.666478,8595.018779
24952.398307,1129.412267,-516.849682,9284.151688
24952.400852,-248.853550,3369.094221,10413.563955
24952.403397,344.566454,1282.552914,10049.854920
24952.405942,478.564520,-3235.096155,8518.448456
24952.408487,708.275490,478.564520,9839.286531
24952.411032,765.703232,1416.550979,10413.563955
24952.413577,-708.275490,-612.562586,9284.151688
24952.416121,918.843878,-1741.974853,8843.872330
24952.418666,-612.562586,3943.371645,10509.276859
24952.421211,1780.260014,-1320.838075,9399.007173
24952.423756,612.562586,1914.258080,10107.282662
24952.426301,-4613.361973,-1856.830338,8633.303941
24952.428846,2833.101958,-19.142581,9494.720077
24952.431390,-5340.780043,5857.629725,10853.843314
24952.433935,-1473.978722,-1339.980656,8882.157491
24952.436480,1320.838075,-4058.227130,7771.887805
24952.439025,-1397.408398,10011.569758,12212.966550
24952.441570,535.992262,-3177.668413,8843.872330
24952.444114,803.988394,-4268.795518,8078.169098
24952.446659,-2067.398726,7925.028451,11791.829773
24952.449204,-1339.980656,-2890.529701,8575.876198
24952.451749,689.132909,-1990.828403,8461.020714
24952.454294,-497.707101,6431.907149,11428.120738
24952.456839,-248.853550,267.996131,9705.288466
24952.459383,-803.988394,-2258.824534,8537.591037
24952.461928,-306.281293,2048.256146,9858.429112
24952.464473,-2450.250342,2335.394858,9973.284597
24952.467018,-306.281293,363.709035,9418.149754
24952.469563,1167.697429,-689.132909,9150.153622
24952.472107,-612.562586,2545.963246,9992.427178
24952.474652,-344.566454,1052.841944,9686.145885
24952.477197,-2029.113565,-440.279358,9341.579430
24952.479742,1607.976787,1320.838075,9973.284597
24952.482287,-3139.383251,2411.965181,9973.284597
24952.484832,2909.672282,-3081.955509,8327.022648
24952.487376,1454.836141,6393.621987,11447.263318
24952.489921,-2220.539373,-4709.074877,8403.592971
24952.492466,3560.520029,-3751.945837,8518.448456
24952.495011,-3426.521963,9513.862658,12346.964616
24952.497556,19.142581,1856.830338,10317.851051
24952.500101,2029.113565,-9284.151688,6891.329088
24952.502645,1148.554848,7178.467800,11447.263318
24952.505190,-2009.970984,2239.681954,10202.995566
24952.507735,803.988394,-7006.184573,7159.325219
24952.510280,497.707101,4785.645200,11198.409768
24952.512825,-191.425808,1684.547110,10470.991698
24952.515370,440.279358,-5321.637462,7618.747158
24952.517915,1052.841944,1263.410333,9667.003304
24952.520460,153.140646,3177.668413,10872.985894
24952.523005,-267.996131,-2086.541307,8901.300072
24952.525551,1512.263883,-803.988394,9226.723946
24952.528096,-172.283227,3369.094221,10585.847182
24952.530641,-612.562586,1665.404530,10164.710405
24952.533186,2277.967115,-3905.086483,8652.446522
24952.535731,-1244.267752,1818.545176,10011.569758
24952.538277,-287.138712,133.998066,9399.007173
24952.540822,-1091.127106,-153.140646,9207.581365
24952.543367,3081.955509,516.849682,9724.431046
24952.545912,-2220.539373,1971.685822,10068.997501
24952.548457,-2431.107762,-4268.795518,8039.883936
24952.551002,1588.834206,5034.498750,10987.841379
24952.553548,-5742.774240,823.130974,9552.147819
24952.556093,2277.967115,-7216.752962,6891.329088
24952.558638,-1914.258080,10700.702667,12385.249778
24952.561183,-1703.689691,9322.436850,12193.823970
24952.563728,574.277424,-8173.882002,7121.040058
24952.566274,535.992262,1416.550979,9801.001370
24952.568819,-2813.959378,6393.621987,11562.118803
24952.571364,-1014.556782,-6604.190376,7178.467800
24952.573909,-76.570323,1722.832272,9571.290400
24952.576454,-727.418070,6144.768437,11523.833642
24952.579000,-325.423874,-1761.117434,8977.870395
24952.581545,-842.273555,-1205.982590,8748.159426
24952.584090,-861.416136,2909.672282,10145.567824
24952.586635,-3292.523898,1148.554848,9437.292334
24952.589180,995.414202,-2029.113565,8767.302006
24952.591725,1052.841944,3713.660675,10643.274925
24952.594271,-2067.398726,4498.506488,10566.704602
24952.596816,-172.283227,-2794.816797,8518.448456
24952.599361,-2067.398726,918.843878,9647.860723
24952.601906,1129.412267,2871.387120,10528.419440
24952.604451,-2009.970984,746.560651,9399.007173
24952.606997,2009.970984,-3445.664544,8231.309744
24952.609542,4096.512291,7427.321350,11964.113000
24952.612087,-3847.658741,-1856.830338,9475.577496
24952.614632,3943.371645,-8652.446522,6987.041992
24952.617177,-2220.539373,10834.700733,12729.816232
24952.619722,-421.136778,-2699.103893,8786.444587
24952.622267,2335.394858,-8269.594906,6948.756830
24952.624812,1780.260014,2756.531635,10011.569758
24952.627358,-2431.107762,7867.600709,11925.827838
24952.629903,-76.570323,-8384.450390,6872.186507
24952.632448,1761.117434,957.129040,9801.001370
24952.634993,-344.566454,5570.491013,11638.689126
24952.637538,459.421939,-3943.371645,8250.452325
24952.640083,803.988394,-1703.689691,8709.874264
24952.642628,497.707101,3503.092286,10987.841379
24952.645173,-803.988394,-229.710970,9609.575562
24952.647718,1167.697429,-2833.101958,8537.591037
24952.650263,344.566454,2641.676150,10413.563955
24952.652808,-287.138712,880.558717,9973.284597
24952.655354,2603.390989,-4785.645200,8671.589102
24952.657899,2258.824534,344.566454,9437.292334
24952.660444,-1033.699363,4268.795518,10796.415571
24952.662989,1301.695494,-1856.830338,8901.300072
24952.665534,76.570323,-1856.830338,8786.444587
24952.668079,2718.246474,5015.356170,10987.841379
24952.670624,-5015.356170,689.132909,9590.432981
24952.673169,2048.256146,-6872.186507,7408.178770
24952.675714,-440.279358,10796.415571,12614.960747
24952.678259,-2737.389054,1110.269686,9705.288466
24952.680804,2105.683888,-8078.169098,6374.479406
24952.683349,-401.994197,10317.851051,12232.109131
24952.685895,-612.562586,248.853550,9781.858789
24952.688440,-2143.969050,-8212.167163,7082.754896
24952.690985,1244.267752,784.845813,9437.292334
24952.693530,-1875.972918,8154.739421,12136.396227
24952.696075,861.416136,-4249.652938,8020.741355
24952.698620,593.420005,76.570323,8977.870395
24952.701165,-593.420005,5091.926493,11140.982026
24952.703710,-1473.978722,-1397.408398,8805.587168
24952.706255,-976.271621,-803.988394,8709.874264
24952.708800,133.998066,4268.795518,10834.700733
24952.711345,-114.855485,918.843878,9877.571693
24952.713891,440.279358,-2641.676150,8365.307810
24952.716436,612.562586,3981.656806,10413.563955
24952.718957,-3120.240670,4900.500685,11006.983960
24952.721478,861.416136,-976.271621,9245.866526
24952.723999,-1665.404530,19.142581,9131.011042
24952.726520,2316.252277,746.560651,9571.290400
24952.729041,1473.978722,5091.926493,11179.267187
24952.731562,-1531.406464,-6240.481341,7867.600709
24952.734083,3675.375514,-2469.392923,8997.012976
24952.736604,-3751.945837,9456.434915,12461.820101
24952.739126,1033.699363,-7637.889739,7178.467800
24952.741647,2565.105827,-2029.113565,8824.729749
24952.744168,248.853550,10241.280728,12787.243974
24952.746689,-421.136778,-6585.047795,7446.463931
24952.749210,2871.387120,-1244.267752,8748.159426
24952.751731,746.560651,6336.194245,11600.403965
24952.754252,-1071.984525,1493.121302,10375.278794
24952.756773,1741.974853,-6336.194245,7350.751027
24952.759294,1550.549045,3522.234867,10528.419440
24952.761815,-172.283227,2450.250342,10719.845248
24952.764336,574.277424,-4402.793584,8154.739421
24952.766858,803.988394,2124.826469,10011.569758
24952.769379,-937.986459,2718.246474,10413.563955
24952.771900,1205.982590,-3656.232933,8556.733618
24952.774421,1627.119368,-612.562586,9571.290400
24952.776942,516.849682,4115.654872,10949.556218
24952.779463,-784.845813,-2048.256146,8901.300072
24952.781984,2756.531635,-2909.672282,8614.161360
24952.784505,-2124.826469,1282.552914,9647.860723
24952.787026,995.414202,-114.855485,9475.577496
24952.789547,-1875.972918,4268.795518,10624.132344
24952.792069,-2067.398726,-4441.078746,8116.454259
24952.794590,2354.537438,2067.398726,9743.573627
24952.797111,-2871.387120,8461.020714,11676.974288
24952.799632,1473.978722,-7216.752962,7121.040058
24952.802153,229.710970,1493.121302,9513.862658
24952.804674,-1512.263883,7159.325219,11906.685258
24952.807195,-1301.695494,-7944.171032,7159.325219
24952.809716,995.414202,2297.109696,10030.712339
24952.812237,-2813.959378,6719.045861,11542.976222
24952.814758,-1263.410333,516.849682,9552.147819
24952.817280,57.427742,-4766.502619,7695.317482
24952.819805,-478.564520,5187.639397,10853.843314
24952.822330,-2909.672282,1531.406464,9858.429112
24952.824855,19.142581,-3005.385186,8116.454259
24952.827380,172.283227,3885.943902,10738.987829
24952.829905,-459.421939,1148.554848,9973.284597
24952.832430,-516.849682,-1741.974853,8518.448456
24952.834955,-287.138712,1378.265818,9667.003304
24952.837480,-3905.086483,2220.539373,9954.142016
24952.840005,478.564520,-2488.535504,8767.302006
24952.842530,708.275490,4441.078746,10624.132344
24952.845055,-3828.516160,2890.529701,9992.427178
24952.847580,4555.934230,-6910.471669,7791.030386
24952.850105,325.423874,7025.327154,11906.685258
24952.852630,-1014.556782,-3292.523898,8843.872330
24952.855155,555.134843,-6948.756830,7082.754896
24952.857680,-229.710970,10107.282662,12500.105262
24952.860205,401.994197,-2143.969050,9341.579430
24952.862730,1684.547110,-5608.776174,7503.891674
24952.865255,-746.560651,9628.718142,12289.536874
24952.867781,-1301.695494,-3215.953574,8671.589102
24952.870306,2143.969050,-5474.778109,7867.600709
24952.872831,-497.707101,6546.762634,11772.687192
24952.875356,478.564520,-689.132909,9571.290400
24952.877881,574.277424,-4019.941968,8461.020714
24952.880406,1914.258080,-57.427742,9571.290400
24952.882931,-842.273555,3407.379382,10566.704602
24952.885456,-306.281293,-2737.389054,8461.020714
24952.887981,1665.404530,-669.990328,9341.579430
24952.890506,880.558717,1684.547110,10394.421374
24952.893031,401.994197,-95.712904,9533.005238
24952.895556,153.140646,-842.273555,9303.294269
24952.898081,535.992262,1875.972918,10049.854920
24952.900606,459.421939,-1110.269686,9207.581365
24952.903131,2794.816797,3235.096155,10298.708470
24952.905656,-5264.209720,153.140646,9322.436850
24952.908181,-574.277424,-6719.045861,7523.034254
24952.910706,1129.412267,5474.778109,10892.128475
24952.913231,-2852.244539,7025.327154,11370.692995
24952.915756,1780.260014,-9303.294269,6355.336826
24952.918281,38.285162,5513.063270,10758.130410
24952.920810,-1205.982590,5149.354235,11294.122672
24952.923338,-114.855485,-9571.290400,6508.477472
24952.925866,248.853550,6087.340694,11198.409768
24952.928394,-3101.098090,4383.651003,11026.126541
24952.930922,1397.408398,-6699.903280,7025.327154
24952.933451,-516.849682,4268.795518,10375.278794
24952.935979,-1186.840010,4345.365842,10911.271056
24952.938507,-1320.838075,-4000.799387,7982.456194
24952.941035,1263.410333,-1493.121302,8633.303941
24952.943563,-95.712904,5455.635528,11332.407834
24952.946092,-708.275490,-1665.404530,8977.870395
24952.948620,325.423874,-440.279358,9016.155557
24952.951148,-1473.978722,3120.240670,10394.421374
24952.953676,-2928.814862,-306.281293,8958.727814
24952.956204,-1052.841944,-2163.111630,8633.303941
24952.958733,2220.539373,5895.914886,11236.694930
24952.961261,-4077.369710,-1282.552914,8920.442653
24952.963789,5953.342629,-5819.344563,7905.885870
24952.966317,-363.709035,10356.136213,12978.669782
24952.968845,-555.134843,-7484.749093,7676.174901
24952.971374,842.273555,-11849.257515,5876.772306
24952.973902,1052.841944,7101.897477,11370.692995
24952.976430,172.283227,5934.200048,11696.116869
24952.978958,1205.982590,-9973.284597,6259.623922
24952.981487,1512.263883,6317.051664,11198.409768
24952.984015,-2565.105827,3598.805190,10796.415571
24952.986543,1665.404530,-9111.868461,6661.618118
24952.989071,-344.566454,3388.236802,10451.849117
24952.991599,-0.000000,3311.666478,10815.558152
24952.994128,1014.556782,-4153.940034,8250.452325
24952.996656,1607.976787,803.988394,9858.429112
24952.999184,-1071.984525,2354.537438,10279.565890
24953.001712,-861.416136,-2086.541307,9456.434915
24953.004240,2986.242605,-1933.400661,9169.296203
24953.006769,-861.416136,1435.693560,9973.284597
24953.009297,-38.285162,-1741.974853,8958.727814
24953.011825,-1493.121302,669.990328,9647.860723
24953.014353,3005.385186,631.705166,9954.142016
24953.016881,-2488.535504,325.423874,9456.434915
24953.019410,-823.130974,-2928.814862,8346.165229
24953.021941,-0.000000,6910.471669,11523.833642
24953.024472,-4785.645200,-2297.109696,8690.731683
24953.027004,2775.674216,-4613.361973,7618.747158
24953.029535,-2603.390989,11638.689126,12710.673651
24953.032066,-421.136778,-3732.803256,8384.450390
24953.034598,153.140646,-9341.579430,6623.332957
24953.037129,1129.412267,4498.506488,10719.845248
24953.039661,-3751.945837,4977.071008,11083.554283
24953.042192,95.712904,-8920.442653,6508.477472
24953.044723,-172.283227,5838.487144,10987.841379
24953.047255,-2277.967115,4383.651003,10853.843314
24953.049786,153.140646,-5493.920690,7523.034254
24953.052318,-937.986459,4383.651003,10490.134278
24953.054849,-2009.970984,3407.379382,10413.563955
24953.057380,-612.562586,-4900.500685,7657.032320
24953.059912,861.416136,2928.814862,10260.423309
24953.062443,-2545.963246,3388.236802,10528.419440
24953.064974,-957.129040,-2048.256146,8863.014910
24953.067506,-2584.248408,-823.130974,8671.589102
24953.070037,535.992262,2871.387120,10356.136213
24953.072569,-612.562586,3369.094221,10336.993632
24953.075100,-1435.693560,-5053.641331,7771.887805
24953.077631,6336.194245,2622.533570,10528.419440
24953.080163,-3043.670347,6604.190376,11906.685258
24953.082694,2469.392923,-12366.107197,5953.342629
24953.085225,574.277424,3694.518094,10547.562021
24953.087757,-1990.828403,7350.751027,11925.827838
24953.090288,1225.125171,-10987.841379,6125.625856
24953.092820,1741.974853,4249.652938,10566.704602
24953.095351,-2143.969050,7389.036189,11887.542677
24953.097882,-1416.550979,-3311.666478,8633.303941
24953.100414,2354.537438,-5857.629725,7599.604578
24953.102945,210.568389,7178.467800,12098.111066
24953.105477,191.425808,19.142581,9915.856854
24953.108008,1473.978722,-4996.213589,7905.885870
24953.110539,1684.547110,3943.371645,10834.700733
24953.113071,-1856.830338,1588.834206,10145.567824
24953.115602,114.855485,-4479.363907,7963.313613
24953.118133,2277.967115,2048.256146,10279.565890
24953.120665,-1722.832272,2086.541307,10298.708470
24953.123199,880.558717,-5532.205851,7657.032320
24953.125733,-363.709035,3043.670347,10432.706536
24953.128266,2258.824534,3675.375514,10930.413637
24953.130800,-2469.392923,823.130974,9647.860723
24953.133334,-1741.974853,-6585.047795,6967.899411
24953.135868,1761.117434,8690.731683,11983.255581
24953.138402,-6412.764568,1378.265818,9801.001370
24953.140935,2469.392923,-10298.708470,5876.772306
24953.143469,-1684.547110,12366.107197,12806.386555
24953.146003,-1875.972918,1703.689691,10068.997501
24953.148537,631.705166,-10432.706536,6163.911018
24953.151071,-210.568389,9915.856854,12385.249778
24953.153605,-4479.363907,-363.709035,9494.720077
24953.156138,1875.972918,-8212.167163,6623.332957
24953.158672,-1129.412267,10202.995566,12595.818166
24953.161206,-2641.676150,8556.733618,12270.394293
24953.163740,-765.703232,-5455.635528,7752.745224
24953.166274,-497.707101,1282.552914,9303.294269
24953.168808,-1110.269686,5761.916821,11179.267187
24953.171341,57.427742,-3943.371645,8154.739421
24953.173875,-95.712904,363.709035,9418.149754
24953.176409,-1071.984525,4613.361973,10853.843314
24953.178943,-1512.263883,-2105.683888,8843.872330
24953.181477,-1569.691626,344.566454,9035.298138
24953.184010,-1378.265818,1205.982590,9762.716208
24953.186544,1225.125171,3158.525832,10241.280728
24953.189078,-3751.945837,-1550.549045,8786.444587
24953.191612,1971.685822,-9035.298138,6795.616184
24953.194146,2679.961312,5072.783912,11294.122672
24953.196680,-3445.664544,3101.098090,11045.269122
24953.199213,1856.830338,-11121.839445,6297.909083
24953.201747,612.562586,7791.030386,11676.974288
24953.204281,-421.136778,5034.498750,11447.263318
24953.206815,1818.545176,-9762.716208,6278.766502
24953.209349,1110.269686,7350.751027,11504.691061
24953.211883,-2277.967115,2335.394858,10585.847182
24953.214416,2105.683888,-8384.450390,6948.756830
24953.216950,-57.427742,4594.219392,10892.128475
24953.219484,-133.998066,2450.250342,10585.847182
24953.222018,1052.841944,-5053.641331,8059.026517
24953.224553,1301.695494,-2182.254211,8748.159426
24953.227089,-631.705166,4230.510357,10892.128475
24953.229625,19.142581,-861.416136,9379.864592
24953.232160,1033.699363,-4019.941968,8403.592971
24953.234696,1952.543242,3981.656806,10758.130410
24953.237232,-842.273555,803.988394,9896.714274
24953.239767,1684.547110,-2947.957443,8575.876198
24953.242303,-363.709035,344.566454,9667.003304
24953.244839,1971.685822,4115.654872,10758.130410
24953.247374,-4345.365842,-248.853550,8997.012976
24953.249910,2239.681954,-4421.936165,8020.741355
24953.252446,-1473.978722,10643.274925,12653.245909
24953.254981,-3139.383251,9150.153622,12059.825904
24953.257517,1091.127106,-9226.723946,6451.049730
24953.260053,153.140646,1952.543242,9609.575562
24953.262588,-1971.685822,7848.458128,12021.540742
24953.265124,-421.136778,-8729.016845,6872.186507
24953.267659,1550.549045,3235.096155,10222.138147
24953.270195,-4000.799387,6336.194245,11370.692995
24953.272731,1052.841944,-7044.469734,7082.754896
24953.275266,555.134843,3809.373579,10317.851051
24953.277802,-3522.234867,5187.639397,11064.411702
24953.280338,421.136778,-6087.340694,7293.323285
24953.282873,1014.556782,5589.633594,10853.843314
24953.285409,-1493.121302,2201.396792,11562.118803
24953.287945,-631.705166,-2871.387120,8614.161360
24953.290480,-823.130974,-1588.834206,8690.731683
24953.293016,-2297.109696,5895.914886,10949.556218
24953.295552,-2009.970984,-3905.086483,8078.169098
24953.298087,2469.392923,2565.105827,9992.427178
24953.300623,-4268.795518,3407.379382,10470.991698
24953.303159,4709.074877,-7063.612315,7714.460062
24953.305694,344.566454,6451.049730,11542.976222
24953.308230,-114.855485,-3426.521963,8920.442653
24953.310765,612.562586,-6336.194245,7503.891674
24953.313301,-516.849682,9265.009107,12270.394293
24953.315837,191.425808,-2488.535504,8997.012976
24953.318372,995.414202,-7733.602643,6948.756830
24953.320908,1359.123237,3598.805190,10317.851051
24953.323444,-2182.254211,4134.797453,10930.413637
24953.325981,689.132909,-7599.604578,7255.038123
24953.328519,421.136778,995.414202,9609.575562
24953.331057,478.564520,4651.647134,11140.982026
24953.333594,401.994197,-3809.373579,8537.591037
24953.336132,1397.408398,-842.273555,9303.294269
24953.338670,-1186.840010,4115.654872,10911.271056
24953.341207,861.416136,-2277.967115,8843.872330
24953.343745,210.568389,-2737.389054,8633.303941
24953.346283,1550.549045,3254.238736,10470.991698
24953.348820,-1512.263883,3177.668413,10509.276859
24953.351358,1895.115499,-1741.974853,9188.438784
24953.353895,-2163.111630,-1569.691626,8824.729749
24953.356433,746.560651,612.562586,9628.718142
24953.358971,-1818.545176,6527.620053,11294.122672
24953.361508,-2928.814862,-5819.344563,7484.749093
24953.364046,2909.672282,1148.554848,9379.864592
24953.366584,-3292.523898,10604.989763,12500.105262
24953.369121,765.703232,-8212.167163,6891.329088
24953.371659,133.998066,-689.132909,8843.872330
24953.374197,-2029.113565,9475.577496,12519.247843
24953.376734,-803.988394,-7676.174901,7216.752962
24953.379272,1818.545176,1110.269686,9552.147819
24953.381810,-1627.119368,8154.739421,11753.544611
24953.384347,-2163.111630,95.712904,9456.434915
24953.386885,-306.281293,-3981.656806,8001.598774
24953.389423,-440.279358,6470.192310,11236.694930
24953.391960,-1416.550979,248.853550,9494.720077
24953.394498,325.423874,-2986.242605,8212.167163
24953.397035,-1569.691626,4019.941968,10547.562021
24953.399573,-287.138712,516.849682,9781.858789
24953.402111,-1148.554848,-1339.980656,8958.727814
24953.404648,1129.412267,4039.084549,10528.419440
24953.407188,-3732.803256,765.703232,9571.290400
24953.409727,2775.674216,-2507.678085,8537.591037
24953.412267,3981.656806,4728.217458,10949.556218
24953.414806,-3158.525832,689.132909,10049.854920
24953.417345,4307.080680,-8690.731683,7178.467800
24953.419885,-1282.552914,8307.880067,12193.823970
24953.422424,-957.129040,-1397.408398,9207.581365
24953.424963,1588.834206,-7752.745224,6891.329088
24953.427503,1454.836141,10183.852986,12480.962682
24953.430042,-593.420005,-765.703232,9360.722011
24953.432582,2411.965181,-6278.766502,7427.321350
24953.435121,-650.847747,7274.180704,12040.683323
24953.437660,-1416.550979,-1875.972918,9303.294269
24953.440200,1780.260014,-5321.637462,7542.176835
24953.442739,1473.978722,6163.911018,11370.692995
24953.445279,-267.996131,5206.781978,11542.976222
24953.447818,-306.281293,-5321.637462,7925.028451
24953.450357,842.273555,421.136778,9552.147819
24953.452897,-937.986459,2699.103893,10624.132344
24953.455436,1225.125171,-3196.810994,8595.018779
24953.457976,1397.408398,803.988394,9877.571693
24953.460515,248.853550,3388.236802,10624.132344
24953.463054,401.994197,-4173.082614,8365.307810
24953.465594,2450.250342,4096.512291,10547.562021
24953.468133,-5053.641331,1895.115499,9762.716208
24953.470672,2699.103893,-6240.481341,7523.034254
24953.473212,-3024.527766,10643.274925,12404.392358
24953.475751,-2431.107762,8059.026517,11753.544611
24953.478291,1435.693560,-9092.725880,6412.764568
24953.480830,-229.710970,4173.082614,10260.423309
24953.483369,-1225.125171,6029.912952,11504.691061
24953.485909,535.992262,-7886.743290,7025.327154
24953.488448,363.709035,4058.227130,10604.989763
24953.490988,-2928.814862,4173.082614,10643.274925
24953.493527,306.281293,-5283.352301,7446.463931
24953.496066,-325.423874,3732.803256,10451.849117
24953.498606,-1627.119368,3713.660675,10719.845248
24953.501145,-153.140646,-3866.801322,8001.598774
24953.503684,229.710970,2488.535504,9801.001370
24953.506224,-1665.404530,2679.961312,10298.708470
24953.508763,-0.000000,-746.560651,9360.722011
24953.511303,-1339.980656,-95.712904,9245.866526
24953.513842,1627.119368,3751.945837,10604.989763
24953.516381,-3579.662610,631.705166,9437.292334
24953.518921,2526.820666,-3426.521963,8288.737486
24953.521460,918.843878,7752.745224,11906.685258
24953.524000,-1875.972918,-5647.061336,8020.741355
24953.526539,4115.654872,-4307.080680,8365.307810
24953.529079,-2584.248408,9801.001370,12863.814298
24953.531620,-440.279358,-8173.882002,7293.323285
24953.534160,1914.258080,-2124.826469,8556.733618
24953.536700,784.845813,11466.405899,13131.810429
24953.539241,-1071.984525,2660.818731,10624.132344
24953.541781,2124.826469,-8212.167163,6795.616184
24953.544321,-267.996131,6049.055533,11504.691061
24953.546862,-612.562586,421.136778,10126.425243
24953.549402,746.560651,-4536.791650,7771.887805
24953.551943,1416.550979,2947.957443,10298.708470
24953.554483,459.421939,1110.269686,10241.280728
24953.557023,57.427742,-2699.103893,8652.446522
24953.559564,823.130974,1148.554848,9877.571693
24953.562104,-1646.261949,-535.992262,9494.720077
24953.564644,1225.125171,-1110.269686,9150.153622
24953.567185,880.558717,1550.549045,10222.138147
24953.569725,2603.390989,784.845813,10126.425243
24953.572265,-2794.816797,-2220.539373,8633.303941
24953.574806,1895.115499,-421.136778,9341.579430
24953.577346,-2947.957443,7561.319416,11715.259450
24953.579887,-2507.678085,-7140.182638,7063.612315
24953.582427,2373.680019,2871.387120,9896.714274
24953.584967,-2679.961312,10758.130410,12519.247843
24953.587508,1282.552914,-10260.423309,6221.338760
24953.590048,-153.140646,2220.539373,9628.718142
24953.592588,-2354.537438,8307.880067,12270.394293
24953.595129,-95.712904,-8269.594906,7006.184573
24953.597669,1110.269686,2545.963246,10145.567824
24953.600209,-2622.533570,5953.342629,11294.122672
24953.602750,-2143.969050,-382.851616,9284.151688
24953.605290,19.142581,-3790.230998,8001.598774
24953.607830,-784.845813,6336.194245,11217.552349
24953.610372,-1052.841944,-153.140646,9360.722011
24953.612913,38.285162,-1952.543242,8461.020714
24953.615454,-1320.838075,4517.649069,10662.417506
24953.617996,-1110.269686,-1244.267752,9131.011042
24953.620537,-2584.248408,-765.703232,8690.731683
24953.623078,823.130974,2163.111630,9973.284597
24953.625619,-746.560651,3617.947771,10432.706536
24953.628161,-1646.261949,-4843.072942,7982.456194
24953.630702,5972.485210,2622.533570,10585.847182
24953.633243,727.418070,6259.623922,12557.533005
24953.635784,-516.849682,-5819.344563,8135.596840
24953.638326,1722.832272,-7082.754896,7350.751027
24953.640867,-1225.125171,11944.970419,13284.951075
24953.643408,-325.423874,-4345.365842,8499.305875
24953.645949,2029.113565,-5398.207786,7331.608446
24953.648491,-401.994197,10719.845248,12691.531070
24953.651032,-995.414202,-3924.229064,8480.163294
24953.653573,1952.543242,-6049.055533,7580.461997
24953.656114,-191.425808,7082.754896,11849.257515
24953.658656,-861.416136,-842.273555,9245.866526
24953.661197,1933.400661,-5589.633594,7695.317482
24953.663738,1129.412267,5532.205851,11447.263318
24953.666279,-516.849682,4977.071008,11217.552349
24953.668820,-267.996131,-5532.205851,7982.456194
24953.671362,1588.834206,-267.996131,9284.151688
24953.673903,344.566454,4957.928427,11408.978157
24953.676444,382.851616,-2813.959378,8633.303941
24953.678985,2105.683888,-2603.390989,8805.587168
24953.681527,1033.699363,8193.024582,12002.398162
24953.684068,-5915.057467,-2928.814862,8365.307810
24953.686609,3713.660675,-5608.776174,7523.034254
24953.689150,-3943.371645,13457.234302,13265.808494
24953.691692,-1837.687757,-4938.785846,7733.602643
24953.694233,2431.107762,-4268.795518,7676.174901
24953.696774,-76.570323,6967.899411,11140.982026
24953.699315,-1531.406464,5589.633594,11600.403965
24953.701857,-478.564520,-8729.016845,6719.045861
24953.704398,976.271621,4345.365842,10624.132344
24953.706939,-2526.820666,4326.223261,10796.415571
24953.709480,133.998066,-5474.778109,7427.321350
24953.712023,478.564520,3101.098090,10241.280728
24953.714565,-2067.398726,4747.360038,11045.269122
24953.717107,-535.992262,-4268.795518,7752.745224
24953.719649,267.996131,2354.537438,9667.003304
24953.722192,-2526.820666,4173.082614,10738.987829
24953.724734,-95.712904,-4575.076811,8173.882002
24953.727276,-2124.826469,2565.105827,9801.001370
24953.729818,-248.853550,2297.109696,9954.142016
24953.732361,76.570323,3292.523898,10451.849117
24953.734903,-2775.674216,-4000.799387,8097.311678
24953.737445,6183.053598,306.281293,9896.714274
24953.739987,-1799.402595,7925.028451,12155.538808
24953.742530,2009.970984,-10643.274925,6585.047795
24953.745072,1435.693560,191.425808,9533.005238
24953.747614,-2737.389054,9437.292334,12461.820101
24953.750156,172.283227,-10202.995566,6393.621987
24953.752699,2239.681954,1761.117434,9552.147819
24953.755241,-1416.550979,9073.583299,12366.107197
24953.757783,382.851616,-8231.309744,7082.754896
24953.760325,1473.978722,-7867.600709,6891.329088
24953.762868,421.136778,5417.350366,11160.124606
24953.765410,-248.853550,2163.111630,10336.993632
24953.767952,976.271621,-5953.342629,7618.747158
24953.770495,1129.412267,2718.246474,10470.991698
24953.773037,-210.568389,2526.820666,10624.132344
24953.775579,-593.420005,-5264.209720,7791.030386
24953.778121,1244.267752,803.988394,9667.003304
24953.780664,-153.140646,4039.084549,11045.269122
24953.783206,1091.127106,-2603.390989,8690.731683
24953.785748,1148.554848,-2258.824534,8805.587168
24953.788290,1627.119368,6910.471669,11600.403965
24953.790833,-5551.348432,-401.994197,9188.438784
24953.793375,-1990.828403,-9360.722011,6412.764568
24953.795917,2679.961312,4536.791650,10336.993632
24953.798459,-3330.809059,10911.271056,12614.960747
24953.801002,1684.547110,-11140.982026,5972.485210
24953.803544,133.998066,3005.385186,9896.714274
24953.806086,-2124.826469,8614.161360,12423.534939
24953.808628,-861.416136,-8116.454259,6948.756830
24953.811171,1205.982590,1550.549045,9590.432981
24953.813713,-3330.809059,5072.783912,10815.558152
24953.816256,401.994197,-4728.217458,7714.460062
24953.818799,114.855485,2258.824534,10011.569758
24953.821342,-1799.402595,4173.082614,10930.413637
24953.823885,-1033.699363,229.710970,9399.007173
24953.826428,-957.129040,-1359.123237,8518.448456
24953.828971,784.845813,3924.229064,10585.847182
24953.831513,-1741.974853,937.986459,9877.571693
24953.834056,344.566454,-497.707101,8977.870395
24953.836599,-2565.105827,1473.978722,9781.858789
24953.839142,2067.398726,957.129040,9801.001370
24953.841685,-2775.674216,2048.256146,9839.286531
24953.844228,2258.824534,-7312.465866,7312.465866
24953.846771,2641.676150,4977.071008,11294.122672
24953.849313,-2565.105827,1761.117434,10585.847182
24953.851856,1205.982590,-9934.999435,6738.188442
24953.854399,-38.285162,8193.024582,8633.303941
24953.856942,344.566454,10815.558152,12768.101394
24953.859485,1014.556782,-6910.471669,7369.893608
24953.862028,2431.107762,-1339.980656,8748.159426
24953.864571,-2565.105827,7369.893608,12078.968485
24953.867113,-133.998066,-5513.063270,8039.883936
24953.869656,1225.125171,-1665.404530,8671.589102
24953.872199,1052.841944,5551.348432,11389.835576
24953.874742,363.709035,-2871.387120,8920.442653
24953.877285,2029.113565,-2048.256146,8786.444587
24953.879828,382.851616,2641.676150,10662.417506
24953.882370,-937.986459,210.568389,9686.145885
24953.884913,535.992262,-2986.242605,8652.446522
24953.887456,1684.547110,-38.285162,9360.722011
24953.889999,2105.683888,957.129040,10049.854920
24953.892542,363.709035,3809.373579,10470.991698
24953.895085,-5034.498750,-4096.512291,7982.456194
24953.897628,2947.957443,-669.990328,9169.296203
24953.900170,-5551.348432,9781.858789,12078.968485
24953.902713,-363.709035,-7350.751027,6795.616184
24953.905256,1780.260014,1110.269686,9437.292334
24953.907799,-2086.541307,10815.558152,12959.527202
24953.910342,-803.988394,-8059.026517,7101.897477
24953.912885,-803.988394,-497.707101,8901.300072
24953.915428,-2029.113565,7427.321350,11791.829773
24953.917972,19.142581,-4249.652938,10260.423309
24953.920516,306.281293,-3905.086483,7963.313613
24953.923059,-459.421939,1799.402595,9915.856854
24953.925603,-1454.836141,4441.078746,10892.128475
24953.928147,-918.843878,-1473.978722,8595.018779
24953.930691,-133.998066,-535.992262,8863.014910
24953.933234,-421.136778,4938.785846,10853.843314
24953.935778,-880.558717,57.427742,9571.290400
24953.938322,-1033.699363,-1359.123237,8652.446522
24953.940865,-2239.681954,1454.836141,9705.288466
24953.943409,1052.841944,2967.100024,10356.136213
24953.945953,-3196.810994,-1933.400661,8652.446522
24953.948496,4900.500685,-4517.649069,8327.022648
24953.951040,3349.951640,4000.799387,10930.413637
24953.953584,-3426.521963,4843.072942,11428.120738
24953.956127,918.843878,-10834.700733,6374.479406
24953.958671,880.558717,5857.629725,11064.411702
24953.961215,-153.140646,6699.903280,11676.974288
24953.963759,2297.109696,-9801.001370,6278.766502
24953.966302,1435.693560,4689.932296,10719.845248
24953.968846,-2986.242605,4000.799387,11179.267187
24953.971390,861.416136,-7905.885870,7025.327154
24953.973933,937.986459,2201.396792,10030.712339
24953.976477,191.425808,4575.076811,11160.124606
24953.979021,650.847747,-5206.781978,7944.171032
24953.981564,2143.969050,172.283227,8307.880067
24953.984108,-669.990328,2450.250342,10413.563955
24953.986652,-861.416136,1186.840010,10011.569758
24953.989195,1052.841944,-2718.246474,8882.157491
24953.991739,1512.263883,2143.969050,10126.425243
24953.994283,1320.838075,19.142581,9686.145885
24953.996827,1359.123237,2603.390989,10030.712339
24953.999370,-5225.924558,-1856.830338,8729.016845
24954.001914,2411.965181,-1607.976787,8977.870395
24954.004458,-4670.789715,9016.155557,11810.972354
24954.007001,-421.136778,-5493.920690,7331.608446
24954.009545,1875.972918,95.712904,9169.296203
24954.012089,-1914.258080,10547.562021,12825.529136
24954.014632,-1588.834206,1933.400661,10413.563955
24954.017177,-363.709035,-7580.461997,6853.043926
24954.019721,-555.134843,6049.055533,10987.841379
24954.022265,-229.710970,2335.394858,10451.849117
24954.024810,727.418070,-3349.951640,8173.882002
24954.027354,-918.843878,1569.691626,9896.714274
24954.029898,-1627.119368,3349.951640,10375.278794
24954.032442,-803.988394,-593.420005,8767.302006
24954.034987,-555.134843,248.853550,9111.868461
24954.037531,172.283227,2909.672282,10356.136213
24954.040075,-746.560651,1263.410333,9839.286531
24954.042620,899.701298,191.425808,9456.434915
24954.045164,-3177.668413,842.273555,9781.858789
24954.047708,95.712904,-2450.250342,8748.159426
24954.050252,3694.518094,4977.071008,11179.267187
24954.052797,-1646.261949,-1627.119368,9303.294269
24954.055341,4326.223261,-6355.336826,7791.030386
24954.057885,-2029.113565,8499.305875,12442.677520
24954.060430,-1818.545176,-3273.381317,8709.874264
24954.062974,2239.681954,-6259.623922,7427.321350
24954.065518,1531.406464,10930.413637,12710.673651
24954.068062,918.843878,-3024.527766,8671.589102
24954.070607,2239.681954,-4977.071008,7867.600709
24954.073151,-2201.396792,6910.471669,11868.400096
24954.075695,-1416.550979,-2373.680019,9035.298138
24954.078240,382.851616,-5742.774240,7599.604578
24954.080784,2431.107762,918.843878,9571.290400
24954.083328,937.986459,3981.656806,11121.839445
24954.085873,1741.974853,-4153.940034,8671.589102
24954.088417,-957.129040,95.712904,9360.722011
24954.090961,-1339.980656,1684.547110,10126.425243
24954.093505,-363.709035,-1933.400661,8786.444587
24954.096050,4096.512291,612.562586,9667.003304
24954.098594,-1990.828403,1646.261949,9877.571693
24954.101138,344.566454,-3330.809059,8499.305875
24954.103683,-2258.824534,6680.760699,11523.833642
24954.106227,-3905.086483,-3426.521963,8403.592971
24954.108771,2718.246474,-957.129040,6661.618118
24954.111315,-191.425808,8575.876198,11676.974288
24954.113860,-1263.410333,2737.389054,10528.419440
24954.116404,-746.560651,-8920.442653,6623.332957
24954.118949,-2124.826469,6967.899411,11274.980091
24954.121493,-1952.543242,1933.400661,10183.852986
24954.124038,1167.697429,-5321.637462,7523.034254
24954.126582,-38.285162,3656.232933,10394.421374
24954.129127,-1071.984525,2947.957443,10509.276859
24954.131671,-1607.976787,-2316.252277,8441.878133
24954.134216,-803.988394,1148.554848,9571.290400
24954.136761,-2277.967115,3369.094221,10164.710405
24954.139305,478.564520,133.998066,9150.153622
24954.141850,325.423874,0.000000,9418.149754
24954.144394,95.712904,2450.250342,10126.425243
24954.146939,-3790.230998,-267.996131,9226.723946
24954.149484,2143.969050,-1014.556782,9150.153622
24954.152028,-1818.545176,4900.500685,10872.985894
24954.154573,1378.265818,-7963.313613,7159.325219
24954.157117,3541.377448,2316.252277,10375.278794
24954.159662,-2565.105827,4900.500685,11504.691061
24954.162207,95.712904,-10030.712339,6661.618118
24954.164751,248.853550,5513.063270,10911.271056
24954.167296,-153.140646,5895.914886,11466.405899
24954.169840,2392.822600,-9341.579430,6336.194245
24954.172385,2124.826469,5340.780043,8116.454259
24954.174929,-2239.681954,6451.049730,11830.114934
24954.177474,-133.998066,-2067.398726,9111.868461
24954.180019,133.998066,-2641.676150,8480.163294
24954.182563,1741.974853,2986.242605,10547.562021
24954.185108,1359.123237,-76.570323,9667.003304
24954.187652,2928.814862,-1875.972918,9169.296203
24954.190197,-1799.402595,612.562586,9781.858789
24954.192742,-1186.840010,-823.130974,9284.151688
24954.195286,-746.560651,-38.285162,9418.149754
24954.197831,3464.807125,918.843878,9858.429112
24954.200375,-1799.402595,-593.420005,9131.011042
24954.202920,2143.969050,-803.988394,9379.864592
24954.205464,-95.712904,5800.201982,11236.694930
24954.208009,-6049.055533,593.420005,9379.864592
24954.210554,2833.101958,-6297.909083,6910.471669
24954.213098,-765.703232,11179.267187,12480.962682
24954.215643,-478.564520,-803.988394,9437.292334
24954.218187,-689.132909,-7810.172966,6929.614250
24954.220732,-2297.109696,8920.442653,12040.683323
24954.223277,-2182.254211,-516.849682,9379.864592
24954.225821,995.414202,-4977.071008,7523.034254
24954.228366,153.140646,4977.071008,10815.558152
24954.230911,-689.132909,2488.535504,10413.563955
24954.233456,-1397.408398,-3139.383251,8307.880067
24954.236000,-937.986459,1837.687757,8595.018779
24954.238545,-2277.967115,4345.365842,10279.565890
24954.241090,76.570323,612.562586,9552.147819
24954.243634,267.996131,-593.420005,9188.438784
24954.246179,1052.841944,3809.373579,10681.560086
24954.248724,-3962.514226,612.562586,9552.147819
24954.251268,1895.115499,-3981.656806,8250.452325
24954.253813,363.709035,7159.325219,11504.691061
24954.256358,-650.847747,-5800.201982,7771.887805
24954.258902,4632.504554,-2756.531635,8652.446522
24954.261447,-2450.250342,8537.591037,12576.675586
24954.263992,-1071.984525,-8365.307810,7350.751027
24954.266536,1263.410333,0.000000,9322.436850
24954.269081,2067.398726,9954.142016,12212.966550
24954.271626,842.273555,363.709035,9667.003304
24954.274170,2124.826469,-6623.332957,7331.608446
24954.276715,-1914.258080,5187.639397,11274.980091
24954.279260,-555.134843,229.710970,9934.999435
24954.281805,535.992262,-3215.953574,8365.307810
24954.284349,1780.260014,2373.680019,10317.851051
24954.286894,1646.261949,-19.142581,9705.288466
24954.289439,1301.695494,-2258.824534,9016.155557
24954.291983,-459.421939,1607.976787,10068.997501
24954.294528,-1091.127106,-114.855485,9647.860723
24954.297073,-765.703232,-1071.984525,9054.440718
24954.299617,3235.096155,363.709035,9016.155557
24954.302162,2220.539373,5513.063270,11026.126541
24954.304707,-6049.055533,-2105.683888,8595.018779
24954.307251,2373.680019,-3943.371645,8307.880067
24954.309796,-5398.207786,10604.989763,12346.964616
24954.312341,-1167.697429,-5321.637462,7293.323285
24954.314885,2794.816797,-995.414202,8729.016845
24954.317430,-1244.267752,11332.407834,13093.525267
24954.319975,-1550.549045,-7427.321350,7465.606512
24954.322520,-1627.119368,-1837.687757,8480.163294
24954.325065,-1627.119368,7810.172966,11810.972354
24954.327610,229.710970,-3311.666478,8365.307810
24954.330155,669.990328,-1531.406464,8671.589102
24954.332700,-669.990328,1397.408398,9896.714274
24954.335245,-1722.832272,3790.230998,10624.132344
24954.337790,-2354.537438,-631.705166,8748.159426
24954.340335,440.279358,229.710970,9150.153622
24954.342880,-133.998066,3713.660675,10547.562021
24954.345426,-2182.254211,344.566454,9265.009107
24954.347971,-38.285162,-3579.662610,8231.309744
24954.350516,-191.425808,6010.770371,11294.122672
24954.353061,-4747.360038,-2086.541307,8901.300072
24954.355606,6699.903280,-4843.072942,8135.596840
24954.358151,133.998066,10336.993632,12710.673651
24954.360696,1397.408398,-7848.458128,7408.178770
24954.363241,937.986459,-11370.692995,6374.479406
24954.365786,-727.418070,8958.727814,12136.396227
24954.368331,-1454.836141,2124.826469,10451.849117
24954.370876,2660.818731,-9169.296203,6221.338760
24954.373421,1205.982590,8671.589102,11810.972354
24954.375966,-516.849682,191.425808,10107.282662
24954.378511,746.560651,-6202.196179,7637.889739
24954.381056,-1052.841944,3656.232933,10509.276859
24954.383602,535.992262,516.849682,9896.714274
24954.386147,1761.117434,-2201.396792,8748.159426
24954.388692,3503.092286,823.130974,10222.138147
24954.391237,-1531.406464,1588.834206,10183.852986
24954.393782,-1473.978722,-3024.527766,8537.591037
24954.396327,-593.420005,-1895.115499,8786.444587
24954.398872,4307.080680,1493.121302,10088.140082
24954.401417,-1454.836141,3771.088418,10413.563955
24954.403962,-2450.250342,-6527.620053,7274.180704
24954.406507,746.560651,5551.348432,10968.698798
24954.409052,-7369.893608,3445.664544,10413.563955
24954.411597,2239.681954,-9150.153622,5991.627790
24954.414142,133.998066,10470.991698,12174.681389
24954.416687,-1110.269686,2737.389054,10528.419440
24954.419233,-382.851616,-10049.854920,6259.623922
24954.421778,-1895.115499,7982.456194,11734.402030
24954.424323,-2373.680019,1741.974853,10222.138147
24954.426868,95.712904,-3330.809059,8288.737486
24954.429413,535.992262,-1646.261949,8614.161360
24954.431958,-957.129040,4000.799387,10738.987829
24954.434503,-1665.404530,1493.121302,10011.569758
24954.437048,-1780.260014,-1378.265818,8595.018779
24954.439593,-689.132909,2277.967115,9839.286531
24954.442138,-746.560651,3177.668413,10241.280728
24954.444684,-1493.121302,-1186.840010,8652.446522
24954.447229,899.701298,-1607.976787,8824.729749
24954.449774,-1378.265818,6853.043926,11619.546546
24954.452319,-3311.666478,-5187.639397,8020.741355
24954.454864,6680.760699,-1856.830338,9150.153622
24954.457409,-1473.978722,10509.276859,12232.109131
24954.459954,-1091.127106,-708.275490,9762.716208
24954.462499,1799.402595,-10547.562021,6508.477472
24954.465044,-1971.685822,11255.837510,12921.242040
24954.467589,-1780.260014,-1684.547110,9303.294269
24954.470135,3005.385186,-7523.034254,6604.190376
24954.472680,803.988394,10222.138147,12385.249778
24954.475225,19.142581,-2143.969050,9360.722011
24954.477770,842.273555,-5264.209720,7791.030386
24954.480315,-1225.125171,4421.936165,10911.271056
24954.482860,344.566454,-689.132909,9609.575562
24954.485405,1799.402595,-2086.541307,8901.300072
24954.487950,3311.666478,976.271621,10222.138147
24954.490495,114.855485,2354.537438,10279.565890
24954.493041,-1186.840010,229.710970,9762.716208
24954.495586,-210.568389,-2316.252277,8709.874264
24954.498131,4019.941968,593.420005,9820.143950
24954.500676,-650.847747,5953.342629,11121.839445
24954.503221,-3866.801322,-6546.762634,7235.895542
24954.505766,2029.113565,1799.402595,9915.856854
24954.508311,-7810.172966,8116.454259,11753.544611
24954.510856,746.560651,-10088.140082,5857.629725
24954.513401,1531.406464,6221.338760,10758.130410
24954.515946,-1895.115499,8327.022648,12289.536874
24954.518492,-497.707101,-10777.272990,6259.623922
24954.521037,-1205.982590,3981.656806,7465.606512
24954.523582,-1512.263883,7427.321350,11600.403965
24954.526127,421.136778,-95.712904,9647.860723
24954.528671,612.562586,-2718.246474,8307.880067
24954.531216,-1071.984525,1952.543242,9973.284597
24954.533761,-2067.398726,2775.674216,10202.995566
24954.536306,-2335.394858,0.000000,8920.442653
24954.538851,267.996131,-497.707101,9016.155557
24954.541395,-229.710970,4460.221326,10758.130410
24954.543940,-344.566454,1550.549045,9724.431046
24954.546485,-1263.410333,-4689.932296,7886.743290
24954.549030,957.129040,4460.221326,10853.843314
24954.551575,-5225.924558,2947.957443,10298.708470
24954.554119,-210.568389,-8920.442653,6948.756830
24954.556664,5436.492947,-2431.107762,8595.018779
24954.559209,-2813.959378,11217.552349,13342.378818
24954.561754,-669.990328,-10413.563955,6757.331022
24954.564299,2143.969050,210.568389,9399.007173
24954.566843,-861.416136,11255.837510,13036.097525
24954.569388,1895.115499,-9896.714274,6144.768437
24954.571933,2277.967115,1225.125171,9303.294269
24954.574478,-2258.824534,6336.194245,11868.400096
24954.577023,248.853550,-5838.487144,7905.885870
24954.579567,-210.568389,-306.281293,9265.009107
24954.582112,1148.554848,3311.666478,10872.985894
24954.584657,2871.387120,-1875.972918,10145.567824
24954.587202,-784.845813,-1550.549045,8843.872330
24954.589747,-669.990328,-2105.683888,8767.302006
24954.592291,-1799.402595,2354.537438,10375.278794
24954.594836,1129.412267,1282.552914,9992.427178
24954.597381,401.994197,-4173.082614,8116.454259
24954.599926,3503.092286,2373.680019,10145.567824
24954.602471,-4498.506488,7350.751027,11696.116869
24954.605015,-1435.693560,-10049.854920,6431.907149
24954.607560,440.279358,6987.041992,11179.267187
24954.610105,-3483.949706,8805.587168,11696.116869
24954.612650,3483.949706,-11006.983960,5819.344563
24954.615195,957.129040,6527.620053,11045.269122
24954.617739,-2718.246474,10394.421374,12748.958813
24954.620284,-2067.398726,-2909.672282,8824.729749
24954.622829,76.570323,-3560.520029,8001.598774
24954.625374,-440.279358,4441.078746,10758.130410
24954.627918,957.129040,1933.400661,10126.425243
24954.630462,-957.129040,-1129.412267,8843.872330
24954.633007,-2029.113565,861.416136,9475.577496
24954.635552,-2029.113565,3905.086483,10356.136213
24954.638097,-306.281293,401.994197,9207.581365
24954.640642,-880.558717,-1263.410333,8556.733618
24954.643187,267.996131,1971.685822,10107.282662
24954.645732,-784.845813,3885.943902,10719.845248
24954.648277,-4728.217458,-1110.269686,9073.583299
24954.650822,4115.654872,-7867.600709,7197.610381
24954.653367,1875.972918,10107.282662,12653.245909
24954.655911,-0.000000,-3522.234867,8767.302006
24954.658456,2565.105827,-8556.733618,7006.184573
24954.661001,-2947.957443,11715.259450,13131.810429
24954.663546,-1895.115499,-4039.084549,8652.446522
24954.666091,2871.387120,-6317.051664,7044.469734
24954.668636,497.707101,10892.128475,12653.245909
24954.671181,555.134843,-3158.525832,8882.157491
24954.673726,976.271621,-5264.209720,7752.745224
24954.676271,-1512.263883,4670.789715,10987.841379
24954.678815,153.140646,-459.421939,9705.288466
24954.681360,2507.678085,-2507.678085,8958.727814
24954.683905,612.562586,-1167.697429,9092.725880
24954.686450,-440.279358,459.421939,9781.858789
24954.688995,-1416.550979,1033.699363,9954.142016
24954.691540,1167.697429,-555.134843,9284.151688
24954.694085,631.705166,-1990.828403,8997.012976
24954.696630,2967.100024,4096.512291,10662.417506
24954.699175,-4249.652938,2488.535504,10088.140082
24954.701720,555.134843,-7523.034254,7216.752962
24954.704264,-2258.824534,10394.421374,12366.107197
24954.706809,-3158.525832,2277.967115,9667.003304
24954.709354,3885.943902,-8288.737486,6412.764568
24954.711899,1129.412267,555.134843,9284.151688
24954.714444,-2182.254211,8786.444587,12595.818166
24954.716989,-1531.406464,-5857.629725,7714.460062
24954.719534,-842.273555,-669.990328,8767.302006
24954.722079,-823.130974,4804.787781,10949.556218
24954.724624,1473.978722,574.277424,9647.860723
24954.727169,-708.275490,-1301.695494,8748.159426
24954.729713,-1895.115499,1952.543242,9934.999435
24954.732258,-2048.256146,3675.375514,10279.565890
24954.734803,-401.994197,-957.129040,8843.872330
24954.737348,-995.414202,593.420005,9073.583299
24954.739893,-478.564520,2067.398726,10164.710405
24954.742438,803.988394,1952.543242,10528.419440
24954.744982,-3943.371645,-191.425808,9303.294269
24954.747527,2622.533570,-7446.463931,7350.751027
24954.750072,2297.109696,7791.030386,12021.540742
24954.752617,-344.566454,-1148.554848,9437.292334
24954.755162,2431.107762,-8920.442653,7006.184573
24954.757707,-2143.969050,10222.138147,12614.960747
24954.760251,-1933.400661,-1454.836141,9360.722011
24954.762796,2584.248408,-7465.606512,6814.758765
24954.765341,803.988394,9724.431046,12366.107197
24954.767886,153.140646,-1263.410333,9437.292334
24954.770431,1033.699363,-6163.911018,7484.749093
24954.772976,-995.414202,4077.369710,10643.274925
24954.775520,784.845813,3771.088418,11026.126541
24954.778065,1914.258080,-2545.963246,8997.012976
24954.780610,1225.125171,-669.990328,9188.438784
24954.783155,-497.707101,842.273555,9915.856854
24954.785700,-1780.260014,-382.851616,9379.864592
24954.788245,2086.541307,-306.281293,9360.722011
24954.790789,-1454.836141,153.140646,9437.292334
24954.793334,1531.406464,-1550.549045,8901.300072
24954.795879,-2009.970984,7063.612315,11619.546546
24954.798424,-3273.381317,-4996.213589,7944.171032
24954.800969,1493.121302,1416.550979,9379.864592
24954.803514,-3043.670347,10011.569758,11925.827838
24954.806058,1952.543242,-7637.889739,9705.288466
24954.808603,210.568389,-7925.028451,6948.756830
24954.811148,-1741.974853,7618.747158,11810.972354
24954.813693,-1837.687757,1167.697429,10049.854920
24954.816238,344.566454,-4345.365842,7580.461997
24954.818783,-899.701298,2852.244539,10164.710405
24954.821327,172.283227,2871.387120,10451.849117
24954.823872,-1512.263883,-784.845813,8977.870395
24954.826417,-1741.974853,440.279358,9207.581365
24954.828962,-1110.269686,3005.385186,10222.138147
24954.831507,-1148.554848,1761.117434,9705.288466
24954.834052,2086.541307,-76.570323,9226.723946
24954.836596,-2067.398726,1856.830338,9915.856854
24954.839141,-459.421939,-2277.967115,9035.298138
24954.841686,2947.957443,4134.797453,11045.269122
24954.844231,-2239.681954,-1741.974853,9245.866526
24954.846776,4670.789715,-5934.200048,7618.747158
24954.849320,-1129.412267,8403.592971,12212.966550
24954.851865,-1301.695494,-3330.809059,8748.159426
24954.854410,2833.101958,-5398.207786,7963.313613
24954.856955,344.566454,11026.126541,12959.527202
24954.859500,478.564520,-4823.930362,8059.026517
24954.862044,1952.543242,-4096.512291,7791.030386
24954.864589,-1186.840010,7523.034254,11983.255581
24954.867134,325.423874,-1895.115499,9245.866526
24954.869679,803.988394,-4058.227130,8154.739421
24954.872224,3637.090352,172.283227,9743.573627
24954.874768,-899.701298,2756.531635,10604.989763
24954.877313,-19.142581,-3503.092286,8307.880067
24954.879858,823.130974,191.425808,9609.575562
24954.882403,-746.560651,4019.941968,10892.128475
24954.884948,1703.689691,-3962.514226,8537.591037
24954.887492,3081.955509,3847.658741,10470.991698
24954.890037,-4977.071008,1033.699363,9513.862658
24954.892582,2105.683888,-5436.492947,7848.458128
24954.895127,-4651.647134,9667.003304,12155.538808
24954.897672,-2124.826469,-2488.535504,8231.309744
24954.900216,2603.390989,-2469.392923,8173.882002
24954.902761,344.566454,7025.327154,11198.409768
24954.905306,-1627.119368,2852.244539,10872.985894
24954.907851,-1359.123237,-7312.465866,7121.040058
24954.910396,-1052.841944,4173.082614,10298.708470
24954.912940,-172.283227,3732.803256,10738.987829
24954.915485,842.273555,-2258.824534,8556.733618
24954.918030,-995.414202,306.281293,9360.722011
24954.920575,-2239.681954,3598.805190,10432.706536
24954.923120,-1148.554848,459.421939,9207.581365
24954.925664,-114.855485,-363.709035,9054.440718
24954.928209,-803.988394,3809.373579,10298.708470
24954.930754,-2029.113565,-842.273555,9016.155557
24954.933298,1933.400661,-3005.385186,8595.018779
24954.935843,-899.701298,4479.363907,10758.130410
24954.938388,-689.132909,-5972.485210,7963.313613
24954.940932,4019.941968,-478.564520,9475.577496
24954.943477,-1646.261949,6029.912952,11562.118803
24954.946021,784.845813,-8078.169098,7408.178770
24954.948566,76.570323,3177.668413,10432.706536
24954.951110,-1301.695494,5915.057467,11447.263318
24954.953655,2143.969050,-8958.727814,6623.332957
24954.956199,765.703232,4536.791650,10490.134278
24954.958744,-612.562586,3081.955509,10815.558152
24954.961288,1550.549045,-4919.643266,8154.739421
24954.963833,-631.705166,1320.838075,9896.714274
24954.966378,2679.961312,2105.683888,10547.562021
24954.968922,-593.420005,-1607.976787,9150.153622
24954.971467,823.130974,-1493.121302,8882.157491
24954.974011,267.996131,2009.970984,10394.421374
24954.976556,-823.130974,976.271621,9896.714274
24954.979100,1990.828403,-2890.529701,8805.587168
24954.981645,1895.115499,5474.778109,11006.983960
24954.984189,-4996.213589,-2029.113565,8652.446522
24954.986734,2756.531635,-3617.947771,8327.022648
24954.989278,-5819.344563,9724.431046,12174.681389
24954.991823,-1550.549045,-5149.354235,7389.036189
24954.994368,2163.111630,133.998066,9016.155557
24954.996912,210.568389,9265.009107,12059.825904
24954.999457,-1512.263883,689.132909,10241.280728
24955.002001,-1339.980656,-7484.749093,7006.184573
24955.004546,-669.990328,5321.637462,10796.415571
24955.007090,-0.000000,3311.666478,10509.276859
24955.009635,344.566454,-3005.385186,8327.022648
24955.012179,-1033.699363,937.986459,9494.720077
24955.014724,-2603.390989,4039.084549,10509.276859
24955.017268,-861.416136,-708.275490,8920.442653
24955.019813,-133.998066,19.142581,9207.581365
24955.022358,-669.990328,4957.928427,10758.130410
24955.024902,-2545.963246,-1780.260014,8824.729749
24955.027447,3139.383251,-823.130974,9245.866526
24955.029991,803.988394,6355.336826,11466.405899
24955.032536,-2258.824534,-4460.221326,8518.448456
24955.035080,4517.649069,-4575.076811,8078.169098
24955.037625,-1741.974853,8920.442653,12346.964616
24955.040170,-38.285162,-6489.334891,7886.743290
24955.042714,1397.408398,-823.130974,9245.866526
24955.045259,-727.418070,9073.583299,12366.107197
24955.047804,1397.408398,-8269.594906,6833.901346
24955.050348,1167.697429,1512.263883,9475.577496
24955.052893,-1512.263883,4421.936165,11313.265253
24955.055438,1148.554848,-4862.215523,8193.024582
24955.057982,-306.281293,555.134843,9513.862658
24955.060527,3330.809059,2143.969050,10566.704602
24955.063071,-287.138712,-172.283227,9667.003304
24955.065616,19.142581,-2239.681954,8690.731683
24955.068161,-248.853550,631.705166,9839.286531
24955.070705,650.847747,2967.100024,10490.134278
24955.073250,-918.843878,-3311.666478,8499.305875
24955.075795,4670.789715,1282.552914,9820.143950
24955.078339,-4977.071008,6068.198114,11121.839445
24955.080884,401.994197,-8269.594906,7121.040058
24955.083429,-1397.408398,7695.317482,11504.691061
24955.085973,-3617.947771,5206.781978,10624.132344
24955.088518,3215.953574,-8441.878133,6431.907149
24955.091063,306.281293,8920.442653,11868.400096
24955.093607,-1722.832272,8365.307810,12366.107197
24955.096152,-2297.109696,-5359.922624,8001.598774
24955.098696,-440.279358,-1741.974853,8365.307810
24955.101241,-57.427742,5895.914886,11294.122672
24955.103786,727.418070,612.562586,9820.143950
24955.106330,-1129.412267,-1875.972918,8556.733618
24955.108875,-1339.980656,3771.088418,10260.423309
24955.111420,-1952.543242,1761.117434,9762.716208
24955.113964,-1454.836141,-1569.691626,8461.020714
24955.116509,2335.394858,2431.107762,10183.852986
24955.119054,-2029.113565,4900.500685,10872.985894
24955.121598,306.281293,-6929.614250,7331.608446
24955.124143,6470.192310,-3273.381317,8843.872330
24955.126688,-1588.834206,9131.011042,12614.960747
24955.129232,2813.959378,-8843.872330,7044.469734
24955.131777,2067.398726,-880.558717,9169.296203
24955.134321,-3694.518094,8480.163294,12136.396227
24955.136866,823.130974,-9705.288466,6757.331022
24955.139411,2526.820666,4383.651003,10528.419440
24955.141955,-210.568389,6068.198114,11562.118803
24955.144500,1837.687757,-7829.315547,7082.754896
24955.147044,-497.707101,2258.824534,10088.140082
24955.149589,-172.283227,2718.246474,10604.989763
24955.152133,1110.269686,-3962.514226,8327.022648
24955.154678,2450.250342,248.853550,9762.716208
24955.157222,1186.840010,1971.685822,10317.851051
24955.159767,555.134843,1263.410333,10126.425243
24955.162311,-1339.980656,-1722.832272,8863.014910
24955.164856,3273.381317,-1339.980656,9245.866526
24955.167400,-995.414202,6776.473603,11389.835576
24955.169945,-3847.658741,-6221.338760,7274.180704
24955.172489,2928.814862,899.701298,9513.862658
24955.175034,-7235.895542,8173.882002,11791.829773
24955.177578,382.851616,-8652.446522,6336.194245
24955.180123,382.851616,5934.200048,10585.847182
24955.182668,-2067.398726,6719.045861,11619.546546
24955.185212,-497.707101,-9322.436850,6623.332957
24955.187757,-1263.410333,-4766.502619,7657.032320
24955.190301,-459.421939,6948.756830,11542.976222
24955.192846,95.712904,344.566454,9667.003304
24955.195390,-267.996131,-2833.101958,8288.737486
24955.197935,-1320.838075,2852.244539,10068.997501
24955.200479,-2986.242605,3273.381317,10145.567824
24955.203024,-880.558717,-2277.967115,8327.022648
24955.205568,-631.705166,1473.978722,9705.288466
24955.208113,-440.279358,5742.774240,11160.124606
24955.210657,-2182.254211,-3005.385186,8346.165229
24955.213202,3254.238736,-1646.261949,8901.300072
24955.215746,-2986.242605,8212.167163,12078.968485
24955.218291,-3713.660675,-10719.845248,9743.573627
24955.220835,5130.211654,-9724.431046,6527.620053
24955.223380,-631.705166,10490.134278,12748.958813
24955.225925,-1875.972918,-2603.390989,9054.440718
24955.228469,2928.814862,-6833.901346,7389.036189
24955.231014,478.564520,11542.976222,13036.097525
24955.233558,440.279358,-4957.928427,7982.456194
24955.236103,1799.402595,-3809.373579,7905.885870
24955.238647,-1052.841944,6910.471669,11830.114934
24955.241191,784.845813,-2316.252277,9245.866526
24955.243735,746.560651,-2986.242605,8480.163294
24955.246279,2679.961312,2450.250342,10643.274925
24955.248823,-57.427742,344.566454,9762.716208
24955.251367,459.421939,-918.843878,9360.722011
24955.253911,-937.986459,-1856.830338,8805.587168
24955.256455,2718.246474,1225.125171,10049.854920
24955.258999,-2641.676150,4000.799387,10528.419440
24955.261543,-1416.550979,-7255.038123,6967.899411
24955.264087,1416.550979,5666.203917,11026.126541
24955.266631,-6642.475538,3828.516160,10681.560086
24955.269175,2067.398726,-8193.024582,6489.334891
24955.271720,-784.845813,10183.852986,11849.257515
24955.274264,-1780.260014,1665.404530,9934.999435
24955.276808,287.138712,-8480.163294,6623.332957
24955.279352,-1033.699363,7235.895542,11810.972354
24955.281896,-2143.969050,1569.691626,11389.835576
24955.284440,363.709035,-2928.814862,8595.018779
24955.286984,191.425808,172.283227,9322.436850
24955.289528,-1722.832272,3637.090352,10413.563955
24955.292072,-2411.965181,76.570323,9054.440718
24955.294616,-631.705166,-248.853550,8958.727814
24955.297160,-1684.547110,2813.959378,10145.567824
24955.299704,421.136778,2660.818731,10202.995566
24955.302248,-1990.828403,-727.418070,9150.153622
24955.304792,2660.818731,-1512.263883,9035.298138
24955.307336,-1225.125171,6508.477472,11542.976222
24955.309880,-535.992262,-8365.307810,7216.752962
24955.312424,4192.225195,-1225.125171,9207.581365
24955.314969,-382.851616,8556.733618,12155.538808
24955.317513,-2392.822600,-689.132909,9533.005238
24955.320057,3235.096155,-7350.751027,7235.895542
24955.322601,899.701298,10815.558152,12825.529136
24955.325145,210.568389,-3311.666478,8595.018779
24955.327689,1454.836141,-4881.358104,7523.034254
24955.330233,-1071.984525,5934.200048,11523.833642
24955.332777,631.705166,-880.558717,9801.001370
24955.335321,1110.269686,-3560.520029,8556.733618
24955.337865,1971.685822,1703.689691,10298.708470
24955.340409,114.855485,727.418070,9858.429112
24955.342953,1091.127106,-1378.265818,9111.868461
24955.345497,-382.851616,-593.420005,9265.009107
24955.348041,2737.389054,-1014.556782,9552.147819
24955.350585,-784.845813,6221.338760,11236.694930
24955.353129,-4115.654872,-5149.354235,7523.034254
24955.355673,3349.951640,-1282.552914,8843.872330
24955.358217,-6872.186507,9877.571693,12327.822035
24955.360761,-306.281293,-8059.026517,6604.190376
24955.363305,1512.263883,3407.379382,9877.571693
24955.365849,-2967.100024,9226.723946,12193.823970
24955.368392,-1014.556782,-9341.579430,6661.618118
24955.370936,-746.560651,1435.693560,9743.573627
24955.373480,-1761.117434,6451.049730,11753.544611
24955.376024,325.423874,-3809.373579,8212.167163
24955.378568,210.568389,-2431.107762,8441.878133
24955.381112,-1607.976787,2928.814862,10145.567824
24955.383656,-1703.689691,3024.527766,10164.710405
