#time,accel_x,accel_y,accel_z
12581.865241,-516.849682,95.712904,-9915.856854
12581.867709,-516.849682,267.996131,-9973.284597
12581.870177,114.855485,344.566454,-9954.142016
12581.872645,229.710970,-267.996131,-9781.858789
12581.875113,114.855485,880.558717,-10011.569758
12581.877582,382.851616,765.703232,-9973.284597
12581.880050,-1110.269686,363.709035,-9896.714274
12581.882518,-803.988394,1301.695494,-10298.708470
12581.884986,-287.138712,-631.705166,-9571.290400
12581.887488,593.420005,957.129040,-9992.427178
12581.889990,-440.279358,995.414202,-10164.710405
12581.892492,-823.130974,19.142581,-9992.427178
12581.894994,880.558717,861.416136,-9801.001370
12581.897496,-38.285162,-1627.119368,-9341.579430
12581.899998,-1339.980656,2411.965181,-10662.417506
12581.902500,-2009.970984,-1588.834206,-9456.434915
12581.905003,-133.998066,-535.992262,-9686.145885
12581.907505,-1014.556782,1741.974853,-10432.706536
12581.910007,-287.138712,-2488.535504,-9379.864592
12581.912509,-555.134843,-1052.841944,-9590.432981
12581.915011,-440.279358,2258.824534,-10700.702667
12581.917513,-612.562586,-2067.398726,-9265.009107
12581.920015,-38.285162,-19.142581,-9456.434915
12581.922517,344.566454,1129.412267,-10145.567824
12581.925019,-516.849682,-535.992262,-9743.573627
12581.927521,-803.988394,210.568389,-10011.569758
12581.930023,-784.845813,-593.420005,-9992.427178
12581.932526,-421.136778,478.564520,-10088.140082
12581.935028,114.855485,-842.273555,-9456.434915
12581.937530,-784.845813,-153.140646,-9609.575562
12581.940032,-1014.556782,1435.693560,-10509.276859
12581.942534,229.710970,-1569.691626,-9552.147819
12581.945036,-497.707101,-344.566454,-9705.288466
12581.947538,-1129.412267,1914.258080,-10566.704602
12581.950040,-957.129040,-1550.549045,-9533.005238
12581.952542,-957.129040,-1339.980656,-9571.290400
12581.955044,38.285162,19.142581,-9992.427178
12581.957547,-535.992262,-19.142581,-9954.142016
12581.960049,-957.129040,-114.855485,-9877.571693
12581.962551,-937.986459,-1875.972918,-9552.147819
12581.965053,-899.701298,2871.387120,-10738.987829
12581.967555,-1110.269686,-1244.267752,-9552.147819
12581.970057,669.990328,-325.423874,-9571.290400
12581.972559,-2239.681954,1339.980656,-10528.419440
12581.975061,1186.840010,306.281293,-10088.140082
12581.977563,267.996131,-3943.371645,-8690.731683
12581.980065,-555.134843,4039.084549,-11313.265253
12581.982568,-1397.408398,-3905.086483,-10298.708470
12581.985070,-2660.818731,-3885.943902,-8537.591037
12581.987592,-248.853550,8422.735552,-12289.536874
12581.990114,4019.941968,-6967.899411,-7752.745224
12581.992636,-2105.683888,2871.387120,-10202.995566
12581.995158,-1435.693560,6642.475538,-12212.966550
12581.997680,-1416.550979,-8977.870395,-6967.899411
12582.000202,861.416136,5972.485210,-11753.544611
12582.002725,-1244.267752,-1473.978722,-9609.575562
12582.005247,-325.423874,-2622.533570,-8748.159426
12582.007769,95.712904,4555.934230,-11313.265253
12582.010291,382.851616,-2603.390989,-9054.440718
12582.012813,-2871.387120,2718.246474,-10432.706536
12582.015335,-746.560651,2488.535504,-10298.708470
12582.017857,-19.142581,-1818.545176,-9131.011042
12582.020379,421.136778,2928.814862,-10700.702667
12582.022902,-842.273555,-957.129040,-9571.290400
12582.025424,-1014.556782,-1263.410333,-9456.434915
12582.027946,-689.132909,2297.109696,-10604.989763
12582.030468,-267.996131,-1512.263883,-9322.436850
12582.032990,-459.421939,1263.410333,-10011.569758
12582.035512,114.855485,937.986459,-10145.567824
12582.038034,-382.851616,-689.132909,-9781.858789
12582.040556,-248.853550,325.423874,-9973.284597
12582.043079,-459.421939,344.566454,-9954.142016
12582.045601,-210.568389,650.847747,-9954.142016
12582.048123,-153.140646,765.703232,-10011.569758
12582.050645,1397.408398,746.560651,-9647.860723
12582.053167,-1837.687757,1148.554848,-10011.569758
12582.055689,-1627.119368,669.990328,-10336.993632
12582.058211,-153.140646,-1378.265818,-9456.434915
12582.060733,19.142581,1339.980656,-10279.565890
12582.063256,440.279358,555.134843,-9954.142016
12582.065778,612.562586,-19.142581,-9590.432981
12582.068300,593.420005,229.710970,-10030.712339
12582.070822,-631.705166,823.130974,-9992.427178
12582.073344,-535.992262,-689.132909,-9513.862658
12582.075866,823.130974,2909.672282,-10528.419440
12582.078388,4153.940034,765.703232,-9973.284597
12582.080910,-650.847747,-3598.805190,-8709.874264
12582.083433,-3751.945837,7197.610381,-12461.820101
12582.085955,823.130974,-6010.770371,-8288.737486
12582.088491,344.566454,-2258.824534,-8920.442653
12582.091028,1607.976787,8173.882002,-12653.245909
12582.093564,-1244.267752,-10834.700733,-6680.760699
12582.096101,-459.421939,6546.762634,-11830.114934
12582.098637,-1952.543242,-574.277424,-10164.710405
12582.101174,-1167.697429,-3637.090352,-8537.591037
12582.103710,-1167.697429,5608.776174,-11562.118803
12582.106247,1186.840010,-4498.506488,-8843.872330
12582.108783,-535.992262,-1722.832272,-9265.009107
12582.111320,-76.570323,2277.967115,-10451.849117
12582.113856,-1550.549045,-3828.516160,-8977.870395
12582.116393,-1052.841944,2526.820666,-10949.556218
12582.118929,-401.994197,-1091.127106,-9667.003304
12582.121465,803.988394,-1607.976787,-9092.725880
12582.124002,-669.990328,3503.092286,-11006.983960
12582.126538,-593.420005,-1990.828403,-9341.579430
12582.129075,-593.420005,-248.853550,-9839.286531
12582.131611,57.427742,382.851616,-10164.710405
12582.134148,-1952.543242,0.000000,-9915.856854
12582.136684,-421.136778,0.000000,-9820.143950
12582.139221,-57.427742,-1148.554848,-9494.720077
12582.141757,-248.853550,19.142581,-10030.712339
12582.144294,-1454.836141,248.853550,-10241.280728
12582.146830,-1205.982590,-1971.685822,-9533.005238
12582.149367,-421.136778,957.129040,-10241.280728
12582.151903,-57.427742,-248.853550,-9877.571693
12582.154440,-2258.824534,-1263.410333,-9820.143950
12582.156976,516.849682,765.703232,-10183.852986
12582.159513,-650.847747,-1473.978722,-9265.009107
12582.162049,-344.566454,1588.834206,-10375.278794
12582.164586,-1282.552914,95.712904,-10088.140082
12582.167122,440.279358,-2699.103893,-9169.296203
12582.169659,-3062.812928,2794.816797,-10796.415571
12582.172195,210.568389,2833.101958,-11083.554283
12582.174732,-3330.809059,-5742.774240,-8499.305875
12582.177268,631.705166,4977.071008,-11351.550414
12582.179805,3139.383251,-3101.098090,-8595.018779
12582.182341,-2737.389054,57.427742,-9781.858789
12582.184878,-191.425808,8863.014910,-12691.531070
12582.187414,2220.539373,-10049.854920,-6431.907149
12582.189959,-19.142581,9303.294269,-12193.823970
12582.192504,-1952.543242,-1569.691626,-9954.142016
12582.195049,421.136778,-5015.356170,-8001.598774
12582.197594,1435.693560,6068.198114,-11734.402030
12582.200139,306.281293,-3637.090352,-8977.870395
12582.202685,-1014.556782,1416.550979,-10068.997501
12582.205230,-708.275490,2947.957443,-10585.847182
12582.207775,-287.138712,-1186.840010,-9379.864592
12582.210320,612.562586,2565.105827,-10470.991698
12582.212865,899.701298,-1033.699363,-9418.149754
12582.215410,995.414202,-516.849682,-9801.001370
12582.217955,-1665.404530,2584.248408,-10796.415571
12582.220500,-1167.697429,-2258.824534,-9169.296203
12582.223045,459.421939,669.990328,-9973.284597
12582.225590,784.845813,497.707101,-10011.569758
12582.228135,-1454.836141,708.275490,-10068.997501
12582.230681,287.138712,440.279358,-9934.999435
12582.233226,363.709035,-1052.841944,-9513.862658
12582.235771,325.423874,708.275490,-10011.569758
12582.238316,19.142581,1435.693560,-10183.852986
12582.240861,995.414202,-57.427742,-9647.860723
12582.243406,-401.994197,1148.554848,-10068.997501
12582.245951,-1052.841944,1091.127106,-10222.138147
12582.248496,-248.853550,-708.275490,-9399.007173
12582.251041,-880.558717,421.136778,-9954.142016
12582.253586,38.285162,937.986459,-10394.421374
12582.256131,1703.689691,-114.855485,-9533.005238
12582.258677,267.996131,-918.843878,-9399.007173
12582.261222,-1550.549045,2603.390989,-10624.132344
12582.263767,-1799.402595,-1320.838075,-9475.577496
12582.266312,1990.828403,1875.972918,-10088.140082
12582.268857,4651.647134,-306.281293,-9609.575562
12582.271402,-1493.121302,-1722.832272,-9303.294269
12582.273947,-2163.111630,6642.475538,-11925.827838
12582.276492,1071.984525,-8365.307810,-7408.178770
12582.279037,-1454.836141,2163.111630,-10547.562021
12582.281582,574.277424,4919.643266,-11906.685258
12582.284127,-1129.412267,-10088.140082,-6699.903280
12582.286673,-114.855485,8001.598774,-12423.534939
12582.289218,-2239.681954,-2967.100024,-9379.864592
12582.291693,-1416.550979,-1550.549045,-9073.583299
12582.294168,95.712904,4862.215523,-11255.837510
12582.296643,287.138712,-4249.652938,-8690.731683
12582.299118,-1339.980656,555.134843,-10068.997501
12582.301593,-306.281293,95.712904,-10011.569758
12582.304068,-1225.125171,-2679.961312,-9245.866526
12582.306543,-114.855485,2718.246474,-11006.983960
12582.309019,-401.994197,-2852.244539,-9016.155557
12582.311494,191.425808,650.847747,-9896.714274
12582.313969,-1263.410333,2105.683888,-10758.130410
12582.316444,-440.279358,-1512.263883,-9379.864592
12582.318919,38.285162,497.707101,-10088.140082
12582.321394,153.140646,-382.851616,-9820.143950
12582.323869,-1416.550979,669.990328,-10126.425243
12582.326344,-593.420005,-287.138712,-9877.571693
12582.328819,-114.855485,-650.847747,-9494.720077
12582.331294,-1014.556782,191.425808,-10049.854920
12582.333770,-229.710970,-325.423874,-9992.427178
12582.336245,-95.712904,-1282.552914,-9513.862658
12582.338720,-669.990328,727.418070,-10279.565890
12582.341195,-1856.830338,-1435.693560,-9705.288466
12582.343670,-1052.841944,995.414202,-10222.138147
12582.346145,-325.423874,-803.988394,-9686.145885
12582.348620,803.988394,-306.281293,-9628.718142
12582.351095,-1837.687757,1205.982590,-10279.565890
12582.353570,1550.549045,-1397.408398,-9475.577496
12582.356046,-2182.254211,-1722.832272,-9379.864592
12582.358521,421.136778,3369.094221,-11198.409768
12582.360996,-421.136778,-4058.227130,-8977.870395
12582.363471,-2507.678085,1167.697429,-10241.280728
12582.365946,2737.389054,3713.660675,-10930.413637
12582.368421,248.853550,-7274.180704,-7561.319416
12582.370896,-2871.387120,12366.107197,-13495.519464
12582.373371,1263.410333,-5455.635528,-8078.169098
12582.375846,574.277424,-325.423874,-9092.725880
12582.378322,-1014.556782,6661.618118,-12538.390424
12582.380797,-612.562586,-7121.040058,-7791.030386
12582.383272,1052.841944,3062.812928,-10509.276859
12582.385747,1091.127106,995.414202,-10528.419440
12582.388222,19.142581,-1703.689691,-9073.583299
12582.390723,-1052.841944,2660.818731,-10317.851051
12582.393224,-1378.265818,-459.421939,-9743.573627
12582.395724,1301.695494,1952.543242,-10336.993632
12582.398225,1990.828403,-478.564520,-9571.290400
12582.400726,1110.269686,-1225.125171,-9399.007173
12582.403227,-1378.265818,2775.674216,-10987.841379
12582.405727,-1071.984525,-823.130974,-9762.716208
12582.408228,899.701298,-631.705166,-9399.007173
12582.410729,1569.691626,478.564520,-10030.712339
12582.413230,-1186.840010,1397.408398,-10394.421374
12582.415730,-172.283227,229.710970,-9915.856854
12582.418231,1052.841944,-1033.699363,-9399.007173
12582.420732,1033.699363,2067.398726,-10356.136213
12582.423233,-593.420005,803.988394,-10030.712339
12582.425733,-1071.984525,-172.283227,-9762.716208
12582.428234,38.285162,842.273555,-10011.569758
12582.430735,784.845813,669.990328,-9954.142016
12582.433235,478.564520,-363.709035,-9781.858789
12582.435736,1052.841944,172.283227,-9801.001370
12582.438237,-3235.096155,842.273555,-10183.852986
12582.440738,-842.273555,1703.689691,-10451.849117
12582.443238,-784.845813,-1971.685822,-9131.011042
12582.445739,2660.818731,2239.681954,-10394.421374
12582.448240,-3579.662610,38.285162,-9934.999435
12582.450741,1148.554848,2507.678085,-10585.847182
12582.453241,1741.974853,-2526.820666,-9035.298138
12582.455742,-3292.523898,-2699.103893,-9169.296203
12582.458243,-4096.512291,8193.024582,-12844.671717
12582.460744,555.134843,-10834.700733,-6642.475538
12582.463244,669.990328,4728.217458,-11179.267187
12582.465745,497.707101,880.558717,-10968.698798
12582.468246,-1665.404530,-6087.340694,-7752.745224
12582.470746,-1378.265818,5761.916821,-11600.403965
12582.473247,-574.277424,-2488.535504,-9475.577496
12582.475748,-574.277424,631.705166,-9667.003304
12582.478249,38.285162,440.279358,-10202.995566
12582.480749,-1607.976787,-2105.683888,-9513.862658
12582.483250,-1378.265818,2182.254211,-10738.987829
12582.485751,-1646.261949,-1550.549045,-9628.718142
12582.488252,-210.568389,-1665.404530,-9360.722011
12582.490770,-650.847747,3043.670347,-10987.841379
12582.493288,-803.988394,-2277.967115,-8977.870395
12582.495806,-727.418070,593.420005,-9877.571693
12582.498325,-401.994197,574.277424,-10260.423309
12582.500843,-1282.552914,-95.712904,-9973.284597
12582.503361,-133.998066,-478.564520,-9724.431046
12582.505880,-861.416136,-478.564520,-9705.288466
12582.508398,-1339.980656,612.562586,-10202.995566
12582.510916,-650.847747,-1071.984525,-9647.860723
12582.513435,401.994197,-363.709035,-9820.143950
12582.515953,-574.277424,95.712904,-10088.140082
12582.518471,-1971.685822,-1186.840010,-9820.143950
12582.520989,-976.271621,823.130974,-10126.425243
12582.523508,-306.281293,-899.701298,-9533.005238
12582.526026,593.420005,19.142581,-9934.999435
12582.528544,-1435.693560,1397.408398,-10279.565890
12582.531063,401.994197,-2565.105827,-9169.296203
12582.533581,-2947.957443,1071.984525,-10241.280728
12582.536099,76.570323,918.843878,-10451.849117
12582.538617,-3656.232933,-4287.938099,-8920.442653
12582.541136,2086.541307,4039.084549,-11026.126541
12582.543654,555.134843,-5398.207786,-8039.883936
12582.546172,-2622.533570,5723.631659,-11466.405899
12582.548691,-421.136778,9762.716208,-12748.958813
12582.551209,2201.396792,-9934.999435,-6336.194245
12582.553727,497.707101,8709.874264,-11964.113000
12582.556246,-1722.832272,-76.570323,-10298.708470
12582.558764,172.283227,-6527.620053,-7503.891674
12582.561282,918.843878,6623.332957,-11925.827838
12582.563800,38.285162,-3024.527766,-9322.436850
12582.566319,-708.275490,133.998066,-9647.860723
12582.568837,-38.285162,2316.252277,-10394.421374
12582.571355,-995.414202,497.707101,-9705.288466
12582.573874,-1397.408398,918.843878,-10107.282662
12582.576392,-1473.978722,-382.851616,-9801.001370
12582.578910,555.134843,650.847747,-10030.712339
12582.581428,-325.423874,497.707101,-10241.280728
12582.583947,-287.138712,-1110.269686,-9475.577496
12582.586465,-612.562586,669.990328,-10068.997501
12582.588983,-957.129040,612.562586,-10107.282662
12582.591516,-612.562586,669.990328,-9915.856854
12582.594048,1301.695494,-363.709035,-9590.432981
12582.596581,382.851616,1722.832272,-10260.423309
12582.599114,-727.418070,-287.138712,-9762.716208
12582.601646,-1512.263883,-210.568389,-9724.431046
12582.604179,-229.710970,2469.392923,-10490.134278
12582.606711,880.558717,-899.701298,-9379.864592
12582.609244,497.707101,191.425808,-9781.858789
12582.611776,1301.695494,2105.683888,-10260.423309
12582.614309,-3330.809059,-650.847747,-9743.573627
12582.616842,-1761.117434,1722.832272,-10470.991698
12582.619374,-746.560651,-1378.265818,-9418.149754
12582.621907,2813.959378,1397.408398,-10202.995566
12582.624439,-3062.812928,650.847747,-10030.712339
12582.626972,1148.554848,2124.826469,-10260.423309
12582.629504,-38.285162,-3943.371645,-8537.591037
12582.632037,-5685.346498,5838.487144,-11849.257515
12582.634570,-19.142581,-1148.554848,-9858.429112
12582.637102,2335.394858,-7752.745224,-7293.323285
12582.639635,1378.265818,9609.575562,-12902.099459
12582.642167,-133.998066,-1148.554848,-10279.565890
12582.644700,-1856.830338,-4670.789715,-8173.882002
12582.647232,-1531.406464,5417.350366,-11523.833642
12582.649765,-574.277424,-2871.387120,-9188.438784
12582.652298,344.566454,1167.697429,-9724.431046
12582.654830,-440.279358,-248.853550,-9973.284597
12582.657363,-2258.824534,-478.564520,-10107.282662
12582.659895,-1263.410333,478.564520,-10241.280728
12582.662428,-57.427742,-3828.516160,-8748.159426
12582.664960,669.990328,3158.525832,-10834.700733
12582.667493,-535.992262,-325.423874,-9839.286531
12582.670026,-497.707101,-1627.119368,-9207.581365
12582.672558,-2163.111630,2603.390989,-10375.278794
12582.675091,-669.990328,-76.570323,-9973.284597
12582.677623,-1091.127106,-593.420005,-9705.288466
12582.680156,-306.281293,-325.423874,-9762.716208
12582.682688,-995.414202,-19.142581,-9992.427178
12582.685221,-1033.699363,535.992262,-10088.140082
12582.687754,248.853550,-1416.550979,-9552.147819
12582.690286,-803.988394,210.568389,-10068.997501
12582.692828,-2105.683888,-1416.550979,-9915.856854
12582.695371,-535.992262,38.285162,-9915.856854
12582.697913,287.138712,-306.281293,-9743.573627
12582.700455,-57.427742,-325.423874,-9801.001370
12582.702998,-1895.115499,1569.691626,-10298.708470
12582.705540,-95.712904,-899.701298,-9724.431046
12582.708082,-2718.246474,-746.560651,-9609.575562
12582.710625,1033.699363,2297.109696,-10662.417506
12582.713167,-3101.098090,-4804.787781,-8709.874264
12582.715709,1684.547110,4039.084549,-11140.982026
12582.718252,880.558717,-5340.780043,-8154.739421
12582.720794,-3081.955509,4383.651003,-11064.411702
12582.723336,2297.109696,3483.949706,-10758.130410
12582.725879,1646.261949,-8135.596840,-6738.188442
12582.728421,-1033.699363,12404.392358,-13457.234302
12582.730963,-1799.402595,-6068.198114,-8269.594906
12582.733505,19.142581,-2373.680019,-8901.300072
12582.736048,401.994197,6278.766502,-11657.831707
12582.738590,287.138712,-1607.976787,-9781.858789
12582.741132,-229.710970,-1454.836141,-9111.868461
12582.743675,-248.853550,2967.100024,-10643.274925
12582.746217,-1033.699363,727.418070,-10011.569758
12582.748759,-1091.127106,1263.410333,-10049.854920
12582.751302,-1473.978722,-1952.543242,-9360.722011
12582.753844,861.416136,2143.969050,-10490.134278
12582.756386,172.283227,-708.275490,-9609.575562
12582.758929,-19.142581,-1416.550979,-9207.581365
12582.761471,-899.701298,2622.533570,-10834.700733
12582.764013,-440.279358,-19.142581,-9954.142016
12582.766556,382.851616,-1263.410333,-9092.725880
12582.769098,574.277424,363.709035,-9667.003304
12582.771640,-574.277424,1665.404530,-10528.419440
12582.774182,-1435.693560,-823.130974,-9513.862658
12582.776725,133.998066,382.851616,-9820.143950
12582.779267,440.279358,2143.969050,-10451.849117
12582.781809,325.423874,-803.988394,-9494.720077
12582.784352,1110.269686,440.279358,-9667.003304
12582.786894,-2699.103893,1933.400661,-10413.563955
12582.789436,-937.986459,440.279358,-10279.565890
12582.791979,-133.998066,-1799.402595,-9207.581365
12582.794477,2622.533570,1607.976787,-10241.280728
12582.796975,-3369.094221,1282.552914,-10279.565890
12582.799473,2794.816797,842.273555,-11006.983960
12582.801971,803.988394,-4479.363907,-8269.594906
12582.804469,-4957.928427,3713.660675,-11026.126541
12582.806967,-1588.834206,3139.383251,-11160.124606
12582.809465,1569.691626,-10987.841379,-6393.621987
12582.811963,1225.125171,8882.157491,-12672.388490
12582.814461,-1071.984525,-5493.920690,-8920.442653
12582.816959,-1531.406464,-1493.121302,-9169.296203
12582.819457,-689.132909,4441.078746,-11523.833642
12582.821955,-957.129040,-4096.512291,-8690.731683
12582.824453,-57.427742,2584.248408,-10222.138147
12582.826951,-746.560651,-172.283227,-10068.997501
12582.829449,-1780.260014,344.566454,-10394.421374
12582.831947,-2124.826469,842.273555,-10336.993632
12582.834445,-133.998066,-3675.375514,-8709.874264
12582.836943,612.562586,1799.402595,-10509.276859
12582.839441,-842.273555,1301.695494,-10356.136213
12582.841939,-1531.406464,-2641.676150,-9054.440718
12582.844437,-1761.117434,2526.820666,-10853.843314
12582.846935,267.996131,-842.273555,-9628.718142
12582.849433,-861.416136,-1588.834206,-9111.868461
12582.851931,-880.558717,2163.111630,-10738.987829
12582.854429,-440.279358,-899.701298,-9801.001370
12582.856927,248.853550,-1071.984525,-9494.720077
12582.859425,-401.994197,421.136778,-10088.140082
12582.861923,-2622.533570,-1895.115499,-9762.716208
12582.864422,-1416.550979,-57.427742,-10049.854920
12582.866920,-478.564520,325.423874,-10126.425243
12582.869418,1646.261949,-861.416136,-9475.577496
12582.871916,-1378.265818,1014.556782,-10088.140082
12582.874414,-957.129040,-995.414202,-9820.143950
12582.876912,-2986.242605,-57.427742,-10049.854920
12582.879410,1531.406464,918.843878,-10317.851051
12582.881908,-2565.105827,-3713.660675,-8805.587168
12582.884406,1837.687757,3349.951640,-10796.415571
12582.886904,-421.136778,-5302.494882,-8212.167163
12582.889402,-2679.961312,5647.061336,-11581.261384
12582.891900,3254.238736,-38.285162,-9762.716208
12582.894415,2967.100024,-9379.864592,-6565.905214
12582.896930,650.847747,8614.161360,-11868.400096
12582.899445,-2277.967115,0.000000,-10260.423309
12582.901960,-287.138712,-6336.194245,-7810.172966
12582.904475,440.279358,6393.621987,-11944.970419
12582.906990,133.998066,-3024.527766,-9207.581365
12582.909505,-478.564520,-363.709035,-9418.149754
12582.912020,-727.418070,3215.953574,-10738.987829
12582.914535,-1493.121302,689.132909,-9934.999435
12582.917049,-612.562586,1282.552914,-10068.997501
12582.919564,-727.418070,-1493.121302,-9494.720077
12582.922079,325.423874,2086.541307,-10585.847182
12582.924594,-555.134843,-325.423874,-9533.005238
12582.927109,-1856.830338,-1339.980656,-9475.577496
12582.929624,-440.279358,1531.406464,-10375.278794
12582.932139,937.986459,-344.566454,-9667.003304
12582.934654,-976.271621,459.421939,-9667.003304
12582.937169,-478.564520,1569.691626,-10260.423309
12582.939684,325.423874,-631.705166,-9647.860723
12582.942199,995.414202,1148.554848,-10030.712339
12582.944714,440.279358,1129.412267,-10107.282662
12582.947229,-440.279358,-57.427742,-9705.288466
12582.949744,957.129040,1110.269686,-10126.425243
12582.952259,-1588.834206,1148.554848,-10222.138147
12582.954774,248.853550,306.281293,-9992.427178
12582.957289,-1320.838075,-1952.543242,-9303.294269
12582.959804,2354.537438,1129.412267,-10011.569758
12582.962319,-3120.240670,803.988394,-10145.567824
12582.964834,918.843878,2335.394858,-10432.706536
12582.967349,382.851616,-4268.795518,-8441.878133
12582.969864,-4441.078746,6412.764568,-11906.685258
12582.972379,267.996131,-823.130974,-9686.145885
12582.974894,1378.265818,-7867.600709,-7293.323285
12582.977409,957.129040,9245.866526,-13036.097525
12582.979924,-1665.404530,-8441.878133,-8059.026517
12582.982438,-1301.695494,1225.125171,-10011.569758
12582.984953,-210.568389,3445.664544,-11217.552349
12582.987468,-842.273555,-4249.652938,-9341.579430
12582.989983,210.568389,708.275490,-9705.288466
12582.992498,-1875.972918,669.990328,-10260.423309
12582.995026,-1933.400661,0.000000,-10202.995566
12582.997554,-535.992262,-1148.554848,-9743.573627
12583.000081,631.705166,-2813.959378,-8958.727814
12583.002609,-153.140646,2316.252277,-10585.847182
12583.005136,-1607.976787,631.705166,-10068.997501
12583.007664,631.705166,-2182.254211,-9092.725880
12583.010192,-76.570323,1225.125171,-10317.851051
12583.012719,-1780.260014,1110.269686,-10413.563955
12583.015247,-1301.695494,-1837.687757,-9150.153622
12583.017774,401.994197,-344.566454,-9781.858789
12583.020302,-38.285162,1091.127106,-10432.706536
12583.022830,-1607.976787,-363.709035,-9934.999435
12583.025357,-861.416136,-2813.959378,-9188.438784
12583.027885,-555.134843,1684.547110,-10490.134278
12583.030413,-363.709035,-421.136778,-9954.142016
12583.032940,382.851616,-1875.972918,-9226.723946
12583.035468,-1761.117434,2526.820666,-10528.419440
12583.037995,-2143.969050,-1148.554848,-9724.431046
12583.040523,-2277.967115,555.134843,-9992.427178
12583.043051,1148.554848,-861.416136,-9858.429112
12583.045578,-2679.961312,-976.271621,-9781.858789
12583.048106,1435.693560,421.136778,-9915.856854
12583.050633,-3043.670347,-2890.529701,-8116.454259
12583.053161,-2603.390989,4957.928427,-11370.692995
12583.055689,2641.676150,1416.550979,-10394.421374
12583.058216,1359.123237,-6585.047795,-7235.895542
12583.060744,-1225.125171,11581.261384,-13438.091722
12583.063272,-2009.970984,-6297.909083,-8078.169098
12583.065799,-765.703232,-1225.125171,-9303.294269
12583.068327,421.136778,5685.346498,-12002.398162
12583.070854,401.994197,-5742.774240,-8078.169098
12583.073382,-861.416136,2718.246474,-10317.851051
12583.075910,-267.996131,2373.680019,-10624.132344
12583.078437,-287.138712,-95.712904,-9418.149754
12583.080965,650.847747,1301.695494,-9954.142016
12583.083492,306.281293,-1339.980656,-9628.718142
12583.086020,-210.568389,2182.254211,-10604.989763
12583.088548,-401.994197,0.000000,-9705.288466
12583.091075,-38.285162,-1875.972918,-9035.298138
12583.093603,287.138712,2450.250342,-10796.415571
12583.096141,363.709035,-363.709035,-9915.856854
12583.098680,114.855485,-363.709035,-9245.866526
12583.101218,325.423874,2450.250342,-10451.849117
12583.103757,287.138712,-57.427742,-9858.429112
12583.106295,-191.425808,57.427742,-9686.145885
12583.108834,133.998066,1186.840010,-10317.851051
12583.111372,-267.996131,306.281293,-9839.286531
12583.113910,-612.562586,1856.830338,-9973.284597
12583.116449,-421.136778,880.558717,-10183.852986
12583.118987,267.996131,-1148.554848,-9399.007173
12583.121526,1397.408398,708.275490,-10126.425243
12583.124064,-2009.970984,2105.683888,-10356.136213
12583.126603,3369.094221,-765.703232,-9475.577496
12583.129141,-1339.980656,-689.132909,-9609.575562
12583.131680,-727.418070,6336.194245,-11887.542677
12583.134218,1167.697429,-8116.454259,-7293.323285
12583.136756,-1473.978722,2641.676150,-10643.274925
12583.139295,-344.566454,3369.094221,-11581.261384
12583.141833,-669.990328,-8805.587168,-7293.323285
12583.144372,325.423874,5436.492947,-11849.257515
12583.146910,-153.140646,2297.109696,-10796.415571
12583.149449,-918.843878,-3426.521963,-8595.018779
12583.151987,-899.701298,3177.668413,-10604.989763
12583.154526,306.281293,-229.710970,-9954.142016
12583.157064,1186.840010,-708.275490,-9781.858789
12583.159602,-95.712904,-1895.115499,-9456.434915
12583.162141,-2488.535504,-401.994197,-9915.856854
12583.164679,-1722.832272,957.129040,-10375.278794
12583.167218,708.275490,-1493.121302,-9207.581365
12583.169756,459.421939,478.564520,-10011.569758
12583.172295,-2086.541307,2105.683888,-10815.558152
12583.174833,-1282.552914,-1167.697429,-9399.007173
12583.177371,-746.560651,-2048.256146,-9111.868461
12583.179910,459.421939,-172.283227,-9992.427178
12583.182448,-1110.269686,708.275490,-10509.276859
12583.184987,-2009.970984,-3062.812928,-9131.011042
12583.187525,-516.849682,1627.119368,-10356.136213
12583.190064,19.142581,-38.285162,-10011.569758
12583.192602,-1397.408398,-2316.252277,-9399.007173
12583.195141,-1225.125171,3139.383251,-10834.700733
12583.197687,-2431.107762,-1780.260014,-9418.149754
12583.200234,1818.545176,842.273555,-9877.571693
12583.202780,-114.855485,-1837.687757,-9533.005238
12583.205326,-229.710970,1665.404530,-10700.702667
12583.207873,-1914.258080,-3369.094221,-9226.723946
12583.210419,-3866.801322,-363.709035,-9743.573627
12583.212966,1665.404530,5436.492947,-11217.552349
12583.215512,2143.969050,-6317.051664,-7637.889739
12583.218059,-2201.396792,7791.030386,-11964.113000
12583.220605,-976.271621,440.279358,-10126.425243
12583.223152,210.568389,-4039.084549,-8231.309744
12583.225698,-1263.410333,6202.196179,-12155.538808
12583.228245,842.273555,-4555.934230,-8767.302006
12583.230791,803.988394,-267.996131,-9188.438784
12583.233338,631.705166,4058.227130,-11198.409768
12583.235884,1110.269686,-3311.666478,-8729.016845
12583.238431,-899.701298,2431.107762,-10202.995566
12583.240977,76.570323,2488.535504,-10375.278794
12583.243524,-363.709035,-842.273555,-9762.716208
12583.246070,765.703232,976.271621,-10145.567824
12583.248616,95.712904,-1110.269686,-9322.436850
12583.251163,-38.285162,459.421939,-9992.427178
12583.253709,-1531.406464,861.416136,-10432.706536
12583.256256,-516.849682,-803.988394,-9686.145885
12583.258802,1282.552914,727.418070,-9839.286531
12583.261349,401.994197,1454.836141,-9934.999435
12583.263895,-210.568389,746.560651,-9839.286531
12583.266442,-1301.695494,0.000000,-9915.856854
12583.268988,-880.558717,995.414202,-10298.708470
12583.271535,1588.834206,133.998066,-9552.147819
12583.274081,1091.127106,-2201.396792,-9016.155557
12583.276628,-440.279358,2163.111630,-10547.562021
12583.279174,-3101.098090,-210.568389,-9934.999435
12583.281721,2143.969050,19.142581,-9628.718142
12583.284267,-1971.685822,-497.707101,-9724.431046
12583.286814,-918.843878,4594.219392,-11274.980091
12583.289360,478.564520,-4977.071008,-8212.167163
12583.291907,-4843.072942,3292.523898,-11026.126541
12583.294453,-1263.410333,3177.668413,-11313.265253
12583.296999,267.996131,-10375.278794,-6431.907149
12583.299512,995.414202,8173.882002,-12385.249778
12583.302025,-1588.834206,-4651.647134,-9226.723946
12583.304538,-1703.689691,-5168.496816,-8288.737486
12583.307051,-2220.539373,4115.654872,-10872.985894
12583.309564,-1014.556782,-1071.984525,-9762.716208
12583.312076,-38.285162,38.285162,-9647.860723
12583.314589,-2067.398726,1301.695494,-10432.706536
12583.317102,-248.853550,-1263.410333,-9781.858789
12583.319615,38.285162,-784.845813,-9743.573627
12583.322128,-344.566454,-1320.838075,-9647.860723
12583.324640,-1320.838075,612.562586,-10241.280728
12583.327153,-689.132909,765.703232,-10183.852986
12583.329666,1225.125171,-976.271621,-9418.149754
12583.332179,248.853550,574.277424,-10049.854920
12583.334692,-1837.687757,363.709035,-10183.852986
12583.337204,-2565.105827,-172.283227,-9915.856854
12583.339717,-1703.689691,-1014.556782,-9801.001370
12583.342230,1665.404530,-1129.412267,-9743.573627
12583.344743,267.996131,-76.570323,-9801.001370
12583.347256,-937.986459,535.992262,-10011.569758
12583.349768,-1416.550979,-1014.556782,-9705.288466
12583.352281,-1282.552914,1263.410333,-10336.993632
12583.354794,-2297.109696,-803.988394,-9992.427178
12583.357307,-76.570323,842.273555,-9915.856854
12583.359820,401.994197,-1550.549045,-9475.577496
12583.362332,-727.418070,1148.554848,-10547.562021
12583.364845,-784.845813,-2928.814862,-9303.294269
12583.367358,-3101.098090,-3139.383251,-8997.012976
12583.369871,-535.992262,7178.467800,-11849.257515
12583.372384,4134.797453,-4996.213589,-7963.313613
12583.374896,-631.705166,2335.394858,-9934.999435
12583.377409,-2450.250342,6106.483275,-12117.253646
12583.379922,-1914.258080,-7389.036189,-7503.891674
12583.382435,-1282.552914,4728.217458,-11428.120738
12583.384948,1569.691626,-1033.699363,-9858.429112
12583.387461,1359.123237,-3694.518094,-8039.883936
12583.389973,-114.855485,5436.492947,-11562.118803
12583.392486,574.277424,-2143.969050,-9379.864592
12583.394999,-516.849682,861.416136,-9628.718142
12583.397512,-440.279358,2354.537438,-10528.419440
12583.400038,-133.998066,-880.558717,-9781.858789
12583.402564,-0.000000,1895.115499,-10470.991698
12583.405090,-38.285162,-1339.980656,-9226.723946
12583.407616,861.416136,-516.849682,-9552.147819
12583.410141,-1186.840010,2105.683888,-10853.843314
12583.412667,-593.420005,-612.562586,-9839.286531
12583.415193,1454.836141,363.709035,-9647.860723
12583.417718,1569.691626,2469.392923,-10222.138147
12583.420244,-1167.697429,-421.136778,-9628.718142
12583.422770,-1550.549045,708.275490,-10183.852986
12583.425296,1531.406464,1148.554848,-10126.425243
12583.427821,-497.707101,-1493.121302,-9341.579430
12583.430347,478.564520,1359.123237,-10183.852986
12583.432873,-2105.683888,306.281293,-10088.140082
12583.435398,1684.547110,-19.142581,-9590.432981
12583.437924,-2373.680019,57.427742,-9801.001370
12583.440450,38.285162,4230.510357,-11121.839445
12583.442975,172.283227,-5245.067139,-8135.596840
12583.445501,-4785.645200,4555.934230,-11351.550414
12583.448027,-708.275490,1627.119368,-10758.130410
12583.450553,631.705166,-9590.432981,-6814.758765
12583.453078,803.988394,8327.022648,-12500.105262
12583.455604,-2124.826469,-5627.918755,-8748.159426
12583.458130,-1627.119368,172.283227,-9801.001370
12583.460655,-1607.976787,4249.652938,-11064.411702
12583.463181,-631.705166,-2469.392923,-9303.294269
12583.465707,-325.423874,957.129040,-9915.856854
12583.468232,-1244.267752,1033.699363,-10183.852986
12583.470758,114.855485,-2182.254211,-9341.579430
12583.473284,-459.421939,516.849682,-10241.280728
12583.475810,-1301.695494,-1550.549045,-9590.432981
12583.478335,-1301.695494,-172.283227,-9724.431046
12583.480861,-382.851616,1320.838075,-10241.280728
12583.483387,1186.840010,-1225.125171,-9341.579430
12583.485912,-669.990328,823.130974,-10222.138147
12583.488438,-1971.685822,401.994197,-10164.710405
12583.490964,-2143.969050,-1320.838075,-9667.003304
12583.493489,-306.281293,-1339.980656,-9801.001370
12583.496015,995.414202,-57.427742,-9954.142016
12583.498541,-57.427742,-95.712904,-9896.714274
12583.501076,-1512.263883,-823.130974,-9628.718142
12583.503612,-1473.978722,1665.404530,-10222.138147
12583.506148,-2239.681954,-918.843878,-9896.714274
12583.508683,2009.970984,-287.138712,-9781.858789
12583.511219,38.285162,-1282.552914,-9513.862658
12583.513755,593.420005,2373.680019,-10738.987829
12583.516290,-2833.101958,-4230.510357,-8958.727814
12583.518826,-650.847747,3024.527766,-10968.698798
12583.521362,3215.953574,-1990.828403,-8997.012976
12583.523897,823.130974,-5283.352301,-8039.883936
12583.526433,-1244.267752,10719.845248,-12806.386555
12583.528969,555.134843,-3905.086483,-8518.448456
12583.531504,803.988394,-382.851616,-9245.866526
12583.534040,-1339.980656,5283.352301,-12002.398162
12583.536576,-114.855485,-7063.612315,-7867.600709
12583.539111,535.992262,3617.947771,-10547.562021
12583.541647,1378.265818,1914.258080,-10604.989763
12583.544183,497.707101,-3464.807125,-8614.161360
12583.546718,-1895.115499,3981.656806,-10987.841379
12583.549254,-1301.695494,555.134843,-10068.997501
12583.551789,172.283227,-114.855485,-9571.290400
12583.554325,976.271621,57.427742,-9915.856854
12583.556861,421.136778,-267.996131,-9628.718142
12583.559396,-382.851616,823.130974,-10068.997501
12583.561932,-746.560651,-248.853550,-9839.286531
12583.564468,-153.140646,191.425808,-9877.571693
12583.567003,1512.263883,2029.113565,-10356.136213
12583.569539,363.709035,306.281293,-9494.720077
12583.572075,-535.992262,612.562586,-9839.286531
12583.574610,-229.710970,976.271621,-10068.997501
12583.577146,-976.271621,1091.127106,-10164.710405
12583.579682,842.273555,-976.271621,-9628.718142
12583.582217,1512.263883,19.142581,-9724.431046
12583.584753,-1244.267752,669.990328,-10068.997501
12583.587289,-133.998066,3043.670347,-10528.419440
12583.589824,1607.976787,-3254.238736,-8824.729749
12583.592360,-2450.250342,3579.662610,-11140.982026
12583.594895,2488.535504,1531.406464,-10222.138147
12583.597431,-842.273555,-8078.169098,-7197.610381
12583.599967,-4058.227130,8824.729749,-13016.954944
12583.602511,-918.843878,-5742.774240,-8824.729749
12583.605055,1512.263883,-2679.961312,-8652.446522
12583.607599,746.560651,4249.652938,-11600.403965
12583.610143,-2239.681954,-5015.356170,-8365.307810
12583.612687,-2928.814862,3139.383251,-10566.704602
12583.615231,-555.134843,-172.283227,-10164.710405
12583.617776,287.138712,-1186.840010,-9399.007173
12583.620320,-95.712904,1933.400661,-10432.706536
12583.622864,-1359.123237,-2335.394858,-9475.577496
12583.625408,-2622.533570,-306.281293,-9992.427178
12583.627952,-746.560651,593.420005,-10317.851051
12583.630496,76.570323,-1895.115499,-9035.298138
12583.633040,-478.564520,1435.693560,-10298.708470
12583.635584,-1493.121302,248.853550,-10241.280728
12583.638128,-1244.267752,-650.847747,-9571.290400
12583.640672,-1320.838075,-306.281293,-9954.142016
12583.643217,-1071.984525,-1052.841944,-9801.001370
12583.645761,-459.421939,-842.273555,-9724.431046
12583.648305,344.566454,210.568389,-10107.282662
12583.650849,-918.843878,-325.423874,-9839.286531
12583.653393,-1493.121302,746.560651,-10030.712339
12583.655937,-2871.387120,-210.568389,-10049.854920
12583.658481,1129.412267,631.705166,-10126.425243
12583.661025,287.138712,-2201.396792,-9207.581365
12583.663569,880.558717,2718.246474,-10700.702667
12583.666114,-2469.392923,-3503.092286,-9092.725880
12583.668658,-1761.117434,2565.105827,-10738.987829
12583.671202,3503.092286,-440.279358,-9533.005238
12583.673746,-1091.127106,-2335.394858,-9035.298138
12583.676290,-57.427742,10145.567824,-12863.814298
12583.678834,2029.113565,-7484.749093,-7178.467800
12583.681378,1320.838075,5245.067139,-10930.413637
12583.683922,-1014.556782,6661.618118,-12385.249778
12583.686466,401.994197,-6738.188442,-8116.454259
12583.689011,133.998066,1799.402595,-9915.856854
12583.691555,1091.127106,3483.949706,-11083.554283
12583.694099,555.134843,-3943.371645,-8537.591037
12583.696643,-1569.691626,3483.949706,-10758.130410
12583.699187,-1531.406464,708.275490,-10145.567824
12583.701731,-459.421939,0.000000,-9686.145885
12583.704282,1780.260014,478.564520,-9954.142016
12583.706832,1895.115499,-1186.840010,-9265.009107
12583.709382,-1454.836141,1646.261949,-10413.563955
12583.711933,-1186.840010,-210.568389,-9934.999435
12583.714483,-344.566454,-650.847747,-9533.005238
12583.717034,1512.263883,1722.832272,-10145.567824
12583.719584,133.998066,918.843878,-10011.569758
12583.722135,-497.707101,-210.568389,-9590.432981
12583.724685,19.142581,2488.535504,-10528.419440
12583.727235,459.421939,-1703.689691,-9494.720077
12583.729786,-114.855485,325.423874,-9877.571693
12583.732336,-2029.113565,1512.263883,-10451.849117
12583.734887,2124.826469,-937.986459,-9475.577496
12583.737437,-2182.254211,421.136778,-9781.858789
12583.739988,708.275490,4402.793584,-11102.696864
12583.742538,-1167.697429,-5857.629725,-7982.456194
12583.745088,-5168.496816,6393.621987,-9399.007173
12583.747639,-2737.389054,7293.323285,-12614.960747
12583.750189,267.996131,-11121.839445,-6508.477472
12583.752740,1799.402595,5053.641331,-11332.407834
12583.755290,-1684.547110,-1205.982590,-10298.708470
12583.757841,-2679.961312,-3235.096155,-8709.874264
12583.760391,-957.129040,4307.080680,-11140.982026
12583.762941,344.566454,-3407.379382,-9054.440718
12583.765492,-708.275490,1684.547110,-10279.565890
12583.768042,-976.271621,-191.425808,-9877.571693
12583.770593,-708.275490,-267.996131,-9781.858789
12583.773143,363.709035,440.279358,-10241.280728
12583.775694,-1416.550979,-3579.662610,-9016.155557
12583.778244,114.855485,-57.427742,-9628.718142
12583.780794,-1703.689691,1875.972918,-10490.134278
12583.783345,-344.566454,-1071.984525,-9686.145885
12583.785900,-650.847747,-287.138712,-9858.429112
12583.788455,-191.425808,-497.707101,-9877.571693
12583.791010,-2565.105827,-306.281293,-9820.143950
12583.793565,57.427742,-497.707101,-9896.714274
12583.796120,114.855485,-689.132909,-9934.999435
12583.798675,497.707101,-248.853550,-9801.001370
12583.801230,-1952.543242,76.570323,-9686.145885
12583.803786,-3464.807125,-382.851616,-10107.282662
12583.806341,-459.421939,1569.691626,-10528.419440
12583.808896,1435.693560,-2947.957443,-8997.012976
12583.811451,-1454.836141,-803.988394,-9552.147819
12583.814006,899.701298,478.564520,-10088.140082
12583.816561,-4249.652938,-2660.818731,-9169.296203
12583.819116,-114.855485,6240.481341,-11696.116869
12583.821671,3656.232933,-5819.344563,-7905.885870
12583.824226,-976.271621,4058.227130,-10681.560086
12583.826781,-2852.244539,4498.506488,-11294.122672
12583.829336,-1282.552914,-6221.338760,-7561.319416
12583.831891,-880.558717,6029.912952,-11906.685258
12583.834446,1799.402595,-3349.951640,-9284.151688
12583.837002,382.851616,-2143.969050,-8556.733618
12583.839557,-95.712904,5608.776174,-11600.403965
12583.842112,-918.843878,-497.707101,-9973.284597
12583.844667,-172.283227,-574.277424,-9437.292334
12583.847222,114.855485,2794.816797,-10604.989763
12583.849777,-363.709035,-1435.693560,-9418.149754
12583.852332,153.140646,1703.689691,-10260.423309
12583.854887,382.851616,-1033.699363,-9494.720077
12583.857442,-57.427742,95.712904,-9973.284597
12583.859997,-650.847747,1741.974853,-10490.134278
12583.862552,-861.416136,-880.558717,-9494.720077
12583.865107,229.710970,2124.826469,-10279.565890
12583.867663,593.420005,401.994197,-9705.288466
12583.870218,957.129040,631.705166,-9743.573627
12583.872773,-1282.552914,287.138712,-10164.710405
12583.875328,-153.140646,133.998066,-9839.286531
12583.877883,-2411.965181,650.847747,-10088.140082
12583.880438,2545.963246,631.705166,-9973.284597
12583.882993,-1454.836141,-1684.547110,-9284.151688
12583.885548,-19.142581,5455.635528,-11466.405899
12583.888107,-823.130974,-5589.633594,-8001.598774
12583.890666,-5340.780043,4785.645200,-11466.405899
12583.893225,38.285162,1359.123237,-10738.987829
12583.895784,803.988394,-9494.720077,-6738.188442
12583.898343,957.129040,9054.440718,-12729.816232
12583.900902,-2545.963246,-6183.053598,-8671.589102
12583.903461,-1588.834206,287.138712,-9820.143950
12583.906019,-1301.695494,2641.676150,-11102.696864
12583.908578,-0.000000,-3254.238736,-9131.011042
12583.911137,-899.701298,1301.695494,-10145.567824
12583.913696,-650.847747,133.998066,-10011.569758
12583.916255,114.855485,-708.275490,-9590.432981
12583.918814,421.136778,516.849682,-10279.565890
12583.921373,-2277.967115,-2660.818731,-9341.579430
12583.923932,-1014.556782,1110.269686,-10183.852986
12583.926491,-248.853550,0.000000,-9705.288466
12583.929050,612.562586,-612.562586,-9667.003304
12583.931609,-708.275490,382.851616,-10413.563955
12583.934168,-1416.550979,-1339.980656,-9590.432981
12583.936727,-1799.402595,918.843878,-10164.710405
12583.939285,-612.562586,76.570323,-10145.567824
12583.941844,-382.851616,-2297.109696,-9456.434915
12583.944403,-363.709035,1933.400661,-10317.851051
12583.946962,-2297.109696,-1244.267752,-9590.432981
12583.949521,1301.695494,-133.998066,-9858.429112
12583.952080,-497.707101,-1129.412267,-9724.431046
12583.954639,421.136778,1473.978722,-10394.421374
12583.957198,-3311.666478,-2756.531635,-9284.151688
12583.959757,746.560651,3311.666478,-10892.128475
12583.962316,3464.807125,-3273.381317,-8499.305875
12583.964875,-2067.398726,1722.832272,-10183.852986
12583.967434,1186.840010,5091.926493,-11389.835576
12583.969992,593.420005,-5991.627790,-7886.743290
12583.972551,1761.117434,2794.816797,-10126.425243
12583.975110,38.285162,3828.516160,-11389.835576
12583.977669,-1780.260014,-6719.045861,-7982.456194
12583.980228,-344.566454,6221.338760,-11830.114934
12583.982787,1914.258080,-1588.834206,-9475.577496
12583.985346,727.418070,-976.271621,-9131.011042
12583.987905,-1091.127106,4019.941968,-11121.839445
12583.990467,-937.986459,-1569.691626,-9360.722011
12583.993028,76.570323,1780.260014,-10317.851051
12583.995590,1703.689691,-191.425808,-9781.858789
12583.998151,555.134843,-382.851616,-9552.147819
12584.000713,-1129.412267,1914.258080,-10451.849117
12584.003275,-516.849682,38.285162,-10107.282662
12584.005836,-344.566454,-593.420005,-9456.434915
12584.008398,746.560651,2699.103893,-10624.132344
12584.010959,823.130974,-382.851616,-9360.722011
12584.013521,-497.707101,1761.117434,-10068.997501
12584.016083,440.279358,248.853550,-10164.710405
12584.018644,-95.712904,-1397.408398,-9475.577496
12584.021206,-2105.683888,1933.400661,-10509.276859
12584.023767,1588.834206,382.851616,-9724.431046
12584.026329,-1416.550979,-1435.693560,-9284.151688
12584.028891,995.414202,5379.065205,-11447.263318
12584.031452,-957.129040,-6049.055533,-7886.743290
12584.034014,-5187.639397,-2660.818731,-8997.012976
12584.036575,-3024.527766,8001.598774,-12825.529136
12584.039137,57.427742,-11274.980091,-6604.190376
12584.041699,2297.109696,4919.643266,-11160.124606
12584.044260,-1837.687757,-535.992262,-10413.563955
12584.046822,-3043.670347,-3943.371645,-8671.589102
12584.049384,-957.129040,4575.076811,-11255.837510
12584.051945,172.283227,-3905.086483,-8863.014910
12584.054507,-1225.125171,2201.396792,-10336.993632
12584.057068,-344.566454,-497.707101,-9858.429112
12584.059630,382.851616,-1512.263883,-9226.723946
12584.062192,-421.136778,1933.400661,-10758.130410
12584.064753,-2622.533570,-3139.383251,-9322.436850
12584.067315,-1818.545176,-803.988394,-9533.005238
12584.069876,-1014.556782,1761.117434,-10222.138147
12584.072438,344.566454,-2009.970984,-9360.722011
12584.075000,-669.990328,937.986459,-10356.136213
12584.077561,-133.998066,-708.275490,-9877.571693
12584.080123,-1933.400661,-1435.693560,-9437.292334
12584.082684,-1588.834206,1014.556782,-10585.847182
12584.085246,287.138712,-1607.976787,-9552.147819
12584.087808,-344.566454,-229.710970,-9590.432981
12584.090369,-669.990328,-19.142581,-10068.997501
12584.092903,-2622.533570,689.132909,-10202.995566
12584.095436,95.712904,-1091.127106,-9609.575562
12584.097969,-3177.668413,-2431.107762,-9360.722011
12584.100503,2316.252277,2316.252277,-10490.134278
12584.103036,153.140646,-3656.232933,-8633.303941
12584.105570,-1588.834206,5149.354235,-11255.837510
12584.108103,2909.672282,-1397.408398,-9360.722011
12584.110637,133.998066,-2718.246474,-8595.018779
12584.113170,-2201.396792,8614.161360,-12595.818166
12584.115703,-2086.541307,-6642.475538,-7618.747158
12584.118237,-842.273555,2660.818731,-10509.276859
12584.120770,3024.527766,1703.689691,-10758.130410
12584.123304,555.134843,-5111.069074,-7944.171032
12584.125837,-976.271621,5819.344563,-11542.976222
12584.128370,-1244.267752,-2067.398726,-9399.007173
12584.130904,-229.710970,-574.277424,-9360.722011
12584.133437,363.709035,2469.392923,-10509.276859
12584.135971,746.560651,-1416.550979,-9399.007173
12584.138504,-306.281293,1301.695494,-10107.282662
12584.141037,-478.564520,535.992262,-10011.569758
12584.143571,-478.564520,-689.132909,-9686.145885
12584.146104,-306.281293,1646.261949,-10375.278794
12584.148638,-210.568389,306.281293,-9724.431046
12584.151171,1110.269686,1091.127106,-9705.288466
12584.153705,-708.275490,2277.967115,-10356.136213
12584.156238,287.138712,-631.705166,-9858.429112
12584.158771,287.138712,-593.420005,-9628.718142
12584.161305,765.703232,-401.994197,-9743.573627
12584.163838,803.988394,3215.953574,-10700.702667
12584.166372,1052.841944,-3962.514226,-8633.303941
12584.168905,-1780.260014,4479.363907,-11236.694930
12584.171438,2201.396792,-229.710970,-9590.432981
12584.173972,-3962.514226,-5647.061336,-8078.169098
12584.176505,-3598.805190,8575.876198,-12997.812363
12584.179039,-459.421939,-9054.440718,-7580.461997
12584.181572,2622.533570,1225.125171,-9896.714274
12584.184105,-995.414202,1837.687757,-11064.411702
12584.186639,-2890.529701,-4555.934230,-8537.591037
12584.189172,-2220.539373,4115.654872,-11083.554283
12584.191706,287.138712,-2794.816797,-9265.009107
12584.194246,382.851616,-2220.539373,-9245.866526
12584.196787,421.136778,2756.531635,-10719.845248
12584.199327,-1512.263883,-3713.660675,-8843.872330
12584.201868,-1301.695494,2450.250342,-10758.130410
12584.204408,-133.998066,-1339.980656,-9915.856854
12584.206948,-1741.974853,-1971.685822,-9092.725880
12584.209489,-1186.840010,4000.799387,-11102.696864
12584.212029,497.707101,-4000.799387,-8671.589102
12584.214570,-784.845813,1971.685822,-10528.419440
12584.217110,-937.986459,363.709035,-10413.563955
12584.219651,-2373.680019,-3962.514226,-8805.587168
12584.222191,-1014.556782,2488.535504,-10834.700733
12584.224732,-287.138712,535.992262,-10164.710405
12584.227272,-765.703232,-2813.959378,-9150.153622
12584.229812,-1722.832272,3388.236802,-10853.843314
12584.232353,-880.558717,-2392.822600,-9360.722011
12584.234893,-1933.400661,1167.697429,-10241.280728
12584.237434,-95.712904,-1646.261949,-9533.005238
12584.239974,-4039.084549,-76.570323,-9877.571693
12584.242515,2201.396792,5647.061336,-11428.120738
12584.245055,2048.256146,-7963.313613,-7350.751027
12584.247596,-1952.543242,9456.434915,-12557.533005
12584.250136,-2009.970984,-937.986459,-9533.005238
12584.252677,421.136778,-3292.523898,-8212.167163
12584.255217,842.273555,7178.467800,-11217.552349
12584.257757,3101.098090,-1493.121302,-9724.431046
12584.260298,-535.992262,-2986.242605,-8441.878133
12584.262838,-842.273555,5398.207786,-11581.261384
12584.265379,-248.853550,-3541.377448,-9016.155557
12584.267919,-267.996131,2507.678085,-10241.280728
12584.270460,-1110.269686,880.558717,-10030.712339
12584.273000,-306.281293,-1014.556782,-9456.434915
12584.275541,478.564520,2277.967115,-10566.704602
12584.278081,995.414202,-1493.121302,-9284.151688
12584.280621,-421.136778,1378.265818,-10222.138147
12584.283162,-765.703232,229.710970,-10068.997501
12584.285702,-344.566454,153.140646,-9743.573627
12584.288243,2086.541307,2565.105827,-10030.712339
12584.290783,-191.425808,-516.849682,-9628.718142
12584.293324,-1856.830338,1225.125171,-10490.134278
12584.295869,-1205.982590,631.705166,-10068.997501
12584.298415,1684.547110,-2699.103893,-9035.298138
12584.300961,708.275490,3790.230998,-10872.985894
12584.303507,2220.539373,-2392.822600,-9188.438784
12584.306052,-2392.822600,976.271621,-10126.425243
12584.308598,1780.260014,4192.225195,-10930.413637
12584.311144,-899.701298,-8480.163294,-7293.323285
12584.313690,-3694.518094,7465.606512,-12538.390424
12584.316235,-1129.412267,-4058.227130,-9303.294269
12584.318781,-363.709035,-3694.518094,-7389.036189
12584.321327,918.843878,4613.361973,-11408.978157
12584.323873,-421.136778,-1952.543242,-9743.573627
12584.326418,-3694.518094,-708.275490,-9341.579430
12584.328964,-1071.984525,2852.244539,-10872.985894
12584.331510,689.132909,-3292.523898,-8997.012976
12584.334056,918.843878,2909.672282,-10834.700733
12584.336601,-1301.695494,-2890.529701,-9073.583299
12584.339147,-2009.970984,306.281293,-10088.140082
12584.341693,-1186.840010,976.271621,-10547.562021
12584.344238,-784.845813,-1971.685822,-9284.151688
12584.346784,-344.566454,1244.267752,-10241.280728
12584.349330,-401.994197,-861.416136,-9705.288466
12584.351876,-1205.982590,-823.130974,-9743.573627
12584.354421,-1531.406464,-210.568389,-10126.425243
12584.356967,-784.845813,-2373.680019,-9399.007173
12584.359513,-1052.841944,1378.265818,-10317.851051
12584.362059,-2239.681954,-535.992262,-9973.284597
12584.364604,1703.689691,-267.996131,-9743.573627
12584.367150,-363.709035,-1110.269686,-9552.147819
12584.369696,-210.568389,2392.822600,-10738.987829
12584.372242,-3617.947771,-3235.096155,-9207.581365
12584.374787,38.285162,2852.244539,-10719.845248
12584.377333,4728.217458,-1684.547110,-8997.012976
12584.379879,-1282.552914,-114.855485,-9820.143950
12584.382424,-1225.125171,6738.188442,-12614.960747
12584.384970,-899.701298,-3905.086483,-8499.305875
12584.387516,1071.984525,746.560651,-9475.577496
12584.390062,401.994197,5302.494882,-11810.972354
12584.392607,-1301.695494,-6431.907149,-8039.883936
12584.395153,-325.423874,4938.785846,-11160.124606
12584.397704,2143.969050,-267.996131,-9954.142016
12584.400254,516.849682,-1627.119368,-9131.011042
12584.402805,-1205.982590,4211.367776,-11045.269122
12584.405355,-669.990328,-1837.687757,-9188.438784
12584.407906,-229.710970,1780.260014,-10317.851051
12584.410456,1110.269686,478.564520,-10088.140082
12584.413006,708.275490,-2086.541307,-8901.300072
12584.415557,-535.992262,1627.119368,-10298.708470
12584.418107,-918.843878,1110.269686,-10356.136213
12584.420658,19.142581,-784.845813,-9341.579430
12584.423208,1665.404530,3943.371645,-10528.419440
12584.425758,535.992262,-1339.980656,-9322.436850
12584.428309,-1473.978722,535.992262,-9992.427178
12584.430859,-1339.980656,2105.683888,-10777.272990
12584.433409,1435.693560,-3177.668413,-8901.300072
12584.435960,114.855485,2909.672282,-10528.419440
12584.438510,2622.533570,38.285162,-9839.286531
12584.441061,-2718.246474,-2450.250342,-8977.870395
12584.443611,-382.851616,7925.028451,-12174.681389
12584.446161,1071.984525,-9035.298138,-9552.147819
12584.448712,631.705166,-6106.483275,-7848.458128
12584.451262,421.136778,8518.448456,-12921.242040
12584.453813,-2469.392923,-8480.163294,-7618.747158
12584.456363,-38.285162,2373.680019,-10528.419440
12584.458913,746.560651,1091.127106,-10547.562021
12584.461464,-2335.394858,-3196.810994,-8614.161360
12584.464014,-1761.117434,4019.941968,-11083.554283
12584.466565,363.709035,-3426.521963,-9131.011042
12584.469115,784.845813,2067.398726,-10643.274925
12584.471665,-440.279358,-1550.549045,-9571.290400
12584.474216,-2469.392923,-2258.824534,-9131.011042
12584.476766,-1933.400661,3713.660675,-11217.552349
12584.479317,-669.990328,535.992262,-10375.278794
12584.481867,842.273555,-2469.392923,-9054.440718
12584.484417,-459.421939,1627.119368,-10432.706536
12584.486968,-1971.685822,-497.707101,-9973.284597
12584.489518,-1914.258080,-2431.107762,-9418.149754
12584.492069,-210.568389,784.845813,-10317.851051
12584.494619,-593.420005,-210.568389,-9954.142016
12584.497169,555.134843,-1627.119368,-9207.581365
12584.499723,-1971.685822,555.134843,-10068.997501
12584.502277,-784.845813,1148.554848,-10490.134278
12584.504831,-3043.670347,-2239.681954,-9437.292334
12584.507385,2392.822600,746.560651,-10049.854920
12584.509939,3254.238736,-2660.818731,-8480.163294
12584.512493,-2545.963246,3828.516160,-10930.413637
12584.515047,1914.258080,2507.678085,-10643.274925
12584.517601,1971.685822,-7044.469734,-7274.180704
12584.520155,-631.705166,10107.282662,-12825.529136
12584.522709,-2335.394858,-4058.227130,-8709.874264
12584.525263,-1244.267752,-1301.695494,-9284.151688
12584.527817,3445.664544,4575.076811,-11523.833642
12584.530371,1339.980656,-5474.778109,-7944.171032
12584.532925,-1110.269686,4709.074877,-10987.841379
12584.535479,-1129.412267,-574.277424,-9915.856854
12584.538032,-210.568389,363.709035,-9705.288466
12584.540586,325.423874,2143.969050,-10413.563955
12584.543140,1091.127106,-1416.550979,-9322.436850
12584.545694,191.425808,325.423874,-9762.716208
12584.548248,-784.845813,2009.970984,-10547.562021
12584.550802,267.996131,-1914.258080,-9322.436850
12584.553356,631.705166,2335.394858,-10394.421374
12584.555910,38.285162,2048.256146,-10241.280728
12584.558464,-19.142581,-899.701298,-9207.581365
12584.561018,421.136778,1301.695494,-10241.280728
12584.563572,-1244.267752,1033.699363,-10432.706536
12584.566126,765.703232,-1052.841944,-9533.005238
12584.568680,-842.273555,631.705166,-9858.429112
12584.571234,2603.390989,2105.683888,-10394.421374
12584.573788,-38.285162,-3483.949706,-8518.448456
12584.576342,-5455.635528,3866.801322,-11083.554283
12584.578896,-172.283227,1914.258080,-10738.987829
12584.581450,210.568389,-8327.022648,-7101.897477
12584.584004,823.130974,7867.600709,-12576.675586
12584.586557,-2756.531635,-5723.631659,-8690.731683
12584.589111,-995.414202,-421.136778,-9628.718142
12584.591665,669.990328,2756.531635,-10930.413637
12584.594219,-1033.699363,-3426.521963,-8786.444587
12584.596773,-1607.976787,2967.100024,-10643.274925
12584.599327,191.425808,-2488.535504,-9245.866526
12584.601857,287.138712,1091.127106,-10279.565890
12584.604387,-19.142581,-689.132909,-9896.714274
12584.606917,-1301.695494,-2890.529701,-9016.155557
12584.609447,-1320.838075,1397.408398,-10164.710405
12584.611977,-765.703232,918.843878,-10451.849117
12584.614507,535.992262,-2488.535504,-9016.155557
12584.617038,-957.129040,1378.265818,-10317.851051
12584.619568,-1454.836141,-937.986459,-9934.999435
12584.622098,-1091.127106,-1627.119368,-9494.720077
12584.624628,114.855485,382.851616,-10202.995566
12584.627158,-1665.404530,-1416.550979,-9820.143950
12584.629688,-1148.554848,2277.967115,-10394.421374
12584.632218,-76.570323,-2699.103893,-9054.440718
12584.634748,-555.134843,1952.543242,-10547.562021
12584.637278,-1569.691626,-1741.974853,-10145.567824
12584.639808,-3675.375514,-1780.260014,-9322.436850
12584.642338,669.990328,5570.491013,-11236.694930
12584.644868,1837.687757,-5742.774240,-8001.598774
12584.647398,-1282.552914,5666.203917,-11428.120738
12584.649928,-2450.250342,1761.117434,-10451.849117
12584.652458,-574.277424,-4230.510357,-8039.883936
12584.654988,210.568389,6585.047795,-11906.685258
12584.657518,76.570323,-4536.791650,-8863.014910
12584.660048,-1205.982590,995.414202,-9762.716208
12584.662578,1110.269686,2718.246474,-10777.272990
12584.665108,784.845813,-2603.390989,-9092.725880
12584.667638,-497.707101,3732.803256,-10911.271056
12584.670169,-535.992262,344.566454,-9954.142016
12584.672699,-1320.838075,-1091.127106,-9360.722011
12584.675229,-899.701298,3598.805190,-11006.983960
12584.677759,1244.267752,-2852.244539,-8767.302006
12584.680289,133.998066,727.418070,-10049.854920
12584.682819,-382.851616,2928.814862,-10738.987829
12584.685349,-1607.976787,-248.853550,-9494.720077
12584.687879,612.562586,1646.261949,-10145.567824
12584.690409,842.273555,-19.142581,-9705.288466
12584.692939,-2048.256146,1301.695494,-10241.280728
12584.695469,995.414202,-153.140646,-10068.997501
12584.697999,-650.847747,-267.996131,-9781.858789
12584.700529,2909.672282,2565.105827,-11236.694930
12584.703066,-172.283227,-4249.652938,-8537.591037
12584.705604,-5436.492947,3560.520029,-11006.983960
12584.708141,-306.281293,1990.828403,-10738.987829
12584.710678,727.418070,-8059.026517,-7178.467800
12584.713215,689.132909,7829.315547,-12442.677520
12584.715752,-2947.957443,-5570.491013,-8767.302006
12584.718289,-937.986459,-803.988394,-9590.432981
12584.720827,957.129040,2699.103893,-10872.985894
12584.723364,-880.558717,-3024.527766,-8824.729749
12584.725901,-1646.261949,2813.959378,-10604.989763
12584.728438,191.425808,-2220.539373,-9418.149754
12584.730975,114.855485,918.843878,-10260.423309
12584.733513,612.562586,1320.838075,-10490.134278
12584.736050,-421.136778,-2775.674216,-8997.012976
12584.738587,-1205.982590,937.986459,-10088.140082
12584.741124,-1741.974853,1493.121302,-10738.987829
12584.743661,-0.000000,-2488.535504,-9188.438784
12584.746199,-727.418070,248.853550,-10030.712339
12584.748736,-1071.984525,-612.562586,-10030.712339
12584.751273,-1741.974853,-784.845813,-9647.860723
12584.753810,-689.132909,-172.283227,-10030.712339
12584.756347,1684.547110,-1378.265818,-9686.145885
12584.758885,-2297.109696,382.851616,-9820.143950
12584.761422,-612.562586,784.845813,-10183.852986
12584.763959,-4077.369710,-3158.525832,-9284.151688
12584.766496,2067.398726,2641.676150,-10853.843314
12584.769033,3215.953574,-3349.951640,-8633.303941
12584.771571,-1990.828403,3445.664544,-10566.704602
12584.774108,1761.117434,2718.246474,-10681.560086
12584.776645,1512.263883,-6240.481341,-7599.604578
12584.779182,-172.283227,8920.442653,-12538.390424
12584.781719,-1990.828403,-3790.230998,-8671.589102
12584.784257,-1167.697429,-497.707101,-9399.007173
12584.786794,2718.246474,3235.096155,-11217.552349
12584.789331,1263.410333,-4555.934230,-8346.165229
12584.791868,-861.416136,4000.799387,-10777.272990
12584.794405,-823.130974,-325.423874,-9915.856854
12584.796943,-248.853550,-401.994197,-9552.147819
12584.799480,306.281293,1569.691626,-10413.563955
12584.802017,574.277424,-880.558717,-9494.720077
12584.804560,133.998066,708.275490,-9915.856854
12584.807103,-229.710970,1301.695494,-10336.993632
12584.809646,669.990328,-976.271621,-9437.292334
12584.812189,-497.707101,3388.236802,-10662.417506
12584.814732,-0.000000,-248.853550,-9781.858789
12584.817275,-440.279358,-401.994197,-9360.722011
12584.819819,-631.705166,3464.807125,-10930.413637
12584.822362,1837.687757,-2029.113565,-9437.292334
12584.824905,76.570323,1263.410333,-10145.567824
12584.827448,1856.830338,133.998066,-10892.128475
12584.829991,-2220.539373,-4364.508422,-8422.735552
12584.832534,-3694.518094,6948.756830,-12078.968485
12584.835077,1799.402595,-4230.510357,-8863.014910
12584.837620,401.994197,-2756.531635,-8824.729749
12584.840163,-765.703232,7274.180704,-12576.675586
12584.842706,-1435.693560,-8729.016845,-7389.036189
12584.845250,516.849682,3024.527766,-11045.269122
12584.847793,38.285162,-172.283227,-10260.423309
12584.850336,-2220.539373,-2163.111630,-8863.014910
12584.852879,-880.558717,3254.238736,-10872.985894
12584.855422,267.996131,-2699.103893,-9265.009107
12584.857965,-325.423874,1665.404530,-10509.276859
12584.860508,-708.275490,153.140646,-10260.423309
12584.863051,-1301.695494,-2124.826469,-9226.723946
12584.865594,-765.703232,1875.972918,-10413.563955
12584.868137,-669.990328,-421.136778,-9858.429112
12584.870680,-459.421939,-1205.982590,-9456.434915
12584.873224,-1435.693560,478.564520,-10336.993632
12584.875767,-516.849682,-1493.121302,-9743.573627
12584.878310,-631.705166,-650.847747,-9590.432981
12584.880853,-1665.404530,-19.142581,-10222.138147
12584.883396,995.414202,172.283227,-10068.997501
12584.885939,-401.994197,-2220.539373,-9054.440718
12584.888482,803.988394,2469.392923,-10604.989763
12584.891025,-2354.537438,-2182.254211,-9724.431046
12584.893568,-1646.261949,2163.111630,-10662.417506
12584.896111,4728.217458,-669.990328,-9265.009107
12584.898655,-708.275490,-1550.549045,-9207.581365
12584.901198,-0.000000,8939.585234,-12557.533005
12584.903741,1301.695494,-7255.038123,-7427.321350
12584.906288,2373.680019,4326.223261,-10777.272990
12584.908836,-1014.556782,3196.810994,-11140.982026
12584.911384,-2143.969050,-4843.072942,-8231.309744
12584.913931,1339.980656,4364.508422,-11236.694930
12584.916479,2679.961312,-1799.402595,-9437.292334
12584.919027,267.996131,746.560651,-9801.001370
12584.921574,-861.416136,2124.826469,-10451.849117
12584.924122,-995.414202,-669.990328,-9628.718142
12584.926670,-574.277424,1703.689691,-10470.991698
12584.929218,957.129040,172.283227,-9858.429112
12584.931765,1741.974853,-1512.263883,-9111.868461
12584.934313,344.566454,3024.527766,-10719.845248
12584.936861,976.271621,-287.138712,-9533.005238
12584.939408,-861.416136,-133.998066,-9609.575562
12584.941956,-861.416136,2967.100024,-10853.843314
12584.944504,-153.140646,-593.420005,-9284.151688
12584.947051,1359.123237,-899.701298,-9322.436850
12584.949599,2373.680019,3273.381317,-10815.558152
12584.952147,-784.845813,-3713.660675,-8882.157491
12584.954694,-3426.521963,3407.379382,-9705.288466
12584.957242,1741.974853,3732.803256,-10892.128475
12584.959790,-306.281293,-7752.745224,-7618.747158
12584.962337,-2431.107762,7140.182638,-12366.107197
12584.964885,-880.558717,-3924.229064,-9035.298138
12584.967433,2316.252277,-3426.521963,-8556.733618
12584.969980,-459.421939,4689.932296,-11868.400096
12584.972528,-2756.531635,-5302.494882,-8537.591037
12584.975076,-2201.396792,2124.826469,-10145.567824
12584.977623,-248.853550,746.560651,-10260.423309
12584.980171,-535.992262,-1167.697429,-9552.147819
12584.982719,-574.277424,516.849682,-10011.569758
12584.985266,-1320.838075,-2067.398726,-9475.577496
12584.987814,-1703.689691,727.418070,-10164.710405
12584.990362,-995.414202,1588.834206,-10528.419440
12584.992909,440.279358,-3043.670347,-8824.729749
12584.995457,-995.414202,1225.125171,-10222.138147
12584.998005,-1703.689691,229.710970,-10317.851051
12585.000552,-612.562586,-2641.676150,-9188.438784
12585.003100,287.138712,478.564520,-10107.282662
12585.005648,-2488.535504,-612.562586,-10202.995566
12585.008174,57.427742,172.283227,-9954.142016
12585.010701,-133.998066,-2220.539373,-9188.438784
12585.013228,669.990328,2507.678085,-10585.847182
12585.015754,-3656.232933,-1933.400661,-9609.575562
12585.018281,-2450.250342,1722.832272,-10375.278794
12585.020807,4192.225195,153.140646,-9628.718142
12585.023334,-382.851616,-2143.969050,-9207.581365
12585.025860,-172.283227,8824.729749,-12500.105262
12585.028387,746.560651,-6163.911018,-7733.602643
12585.030914,2258.824534,2967.100024,-10336.993632
12585.033440,-516.849682,3943.371645,-11274.980091
12585.035967,-1607.976787,-4785.645200,-8346.165229
12585.038493,842.273555,3828.516160,-11006.983960
12585.041020,2507.678085,-861.416136,-9667.003304
12585.043547,669.990328,133.998066,-9571.290400
12585.046073,-440.279358,2143.969050,-10356.136213
12585.048600,-1033.699363,-133.998066,-9839.286531
12585.051126,-1244.267752,1818.545176,-10528.419440
12585.053653,555.134843,765.703232,-9934.999435
12585.056179,2048.256146,-2277.967115,-8805.587168
12585.058706,842.273555,3656.232933,-10872.985894
12585.061233,-1071.984525,-172.283227,-9762.716208
12585.063759,-1378.265818,210.568389,-9762.716208
12585.066286,1091.127106,1875.972918,-10279.565890
12585.068812,-880.558717,0.000000,-9667.003304
12585.071339,1052.841944,842.273555,-10049.854920
12585.073866,-669.990328,784.845813,-10068.997501
12585.076392,2871.387120,593.420005,-10068.997501
12585.078919,-2526.820666,-2297.109696,-9016.155557
12585.081445,-4919.643266,5876.772306,-11447.263318
12585.083972,401.994197,-957.129040,-9877.571693
12585.086498,937.986459,-6010.770371,-7848.458128
12585.089025,267.996131,7446.463931,-12461.820101
12585.091552,-2297.109696,-5723.631659,-8461.020714
12585.094078,-382.851616,-95.712904,-9896.714274
12585.096605,153.140646,1627.119368,-10796.415571
12585.099131,-574.277424,-2220.539373,-9035.298138
12585.101658,-1052.841944,1531.406464,-10107.282662
12585.104185,-153.140646,-918.843878,-9896.714274
12585.106711,-114.855485,497.707101,-10164.710405
12585.109245,-497.707101,-1799.402595,-9399.007173
12585.111779,-1378.265818,-803.988394,-9667.003304
12585.114313,-727.418070,1454.836141,-10432.706536
12585.116847,-1569.691626,918.843878,-10413.563955
12585.119381,-842.273555,-2967.100024,-9054.440718
12585.121915,-765.703232,1033.699363,-10451.849117
12585.124448,-708.275490,-401.994197,-10011.569758
12585.126982,-2813.959378,-2431.107762,-9322.436850
12585.129516,1799.402595,1454.836141,-10432.706536
12585.132050,-344.566454,-1895.115499,-9399.007173
12585.134584,-0.000000,1244.267752,-10183.852986
12585.137118,-3598.805190,-1569.691626,-9513.862658
12585.139652,2258.824534,1454.836141,-10317.851051
12585.142186,1148.554848,-2775.674216,-8901.300072
12585.144720,-1378.265818,4441.078746,-10088.140082
12585.147254,1282.552914,5608.776174,-11447.263318
12585.149788,1512.263883,-6546.762634,-7465.606512
12585.152321,1301.695494,6699.903280,-11772.687192
12585.154855,-995.414202,-593.420005,-9934.999435
12585.157389,-803.988394,-2622.533570,-8729.016845
12585.159923,1378.265818,3656.232933,-11179.267187
12585.162457,1837.687757,-2392.822600,-9226.723946
12585.164991,38.285162,1301.695494,-9934.999435
12585.167525,-593.420005,1110.269686,-10049.854920
12585.170059,-1186.840010,861.416136,-10164.710405
12585.172593,-191.425808,957.129040,-10317.851051
12585.175127,1052.841944,-2220.539373,-8882.157491
12585.177661,1761.117434,-574.277424,-9341.579430
12585.180194,1052.841944,3771.088418,-10930.413637
12585.182728,-727.418070,-2603.390989,-9092.725880
12585.185262,-2086.541307,2163.111630,-10451.849117
12585.187796,593.420005,1684.547110,-10241.280728
12585.190330,-689.132909,-2048.256146,-8939.585234
12585.192864,1454.836141,3081.955509,-10700.702667
12585.195398,-2603.390989,-995.414202,-9858.429112
12585.197932,1110.269686,2067.398726,-10432.706536
12585.200466,-1646.261949,-3905.086483,-8461.020714
12585.203000,-4996.213589,5857.629725,-11887.542677
12585.205534,746.560651,-2813.959378,-9265.009107
12585.208067,1205.982590,-4651.647134,-6565.905214
12585.210607,574.277424,6470.192310,-11964.113000
12585.213147,-3407.379382,-1148.554848,-10222.138147
12585.215687,-1454.836141,-4441.078746,-8480.163294
12585.218227,382.851616,3349.951640,-10987.841379
12585.220767,478.564520,-1435.693560,-9552.147819
12585.223306,-1263.410333,-306.281293,-9552.147819
12585.225846,-631.705166,248.853550,-10088.140082
12585.228386,-1052.841944,-95.712904,-10202.995566
12585.230926,-746.560651,-478.564520,-9801.001370
12585.233466,-76.570323,-2297.109696,-9035.298138
12585.236005,-1110.269686,1952.543242,-10700.702667
12585.238545,-1684.547110,401.994197,-10202.995566
12585.241085,-957.129040,-2737.389054,-9207.581365
12585.243625,-172.283227,-535.992262,-9839.286531
12585.246165,-631.705166,1263.410333,-10777.272990
12585.248705,-1684.547110,-4115.654872,-8843.872330
12585.251244,-1933.400661,2143.969050,-10451.849117
12585.253784,-1301.695494,-57.427742,-10279.565890
12585.256324,-1301.695494,-784.845813,-9494.720077
12585.258864,-727.418070,-918.843878,-9705.288466
12585.261404,-3675.375514,1990.828403,-10624.132344
12585.263944,2679.961312,1837.687757,-10164.710405
12585.266483,689.132909,-4728.217458,-8327.022648
12585.269023,-842.273555,9399.007173,-12691.531070
12585.271563,-3694.518094,4249.652938,-11274.980091
12585.274103,-1110.269686,-5915.057467,-7714.460062
12585.276643,823.130974,5091.926493,-11217.552349
12585.279182,-306.281293,-1033.699363,-10011.569758
12585.281722,-918.843878,-1684.547110,-9073.583299
12585.284262,133.998066,2545.963246,-10604.989763
12585.286802,555.134843,38.285162,-9992.427178
12585.289342,-1148.554848,1244.267752,-10068.997501
12585.291882,-535.992262,-248.853550,-9571.290400
12585.294421,-287.138712,995.414202,-10260.423309
12585.296961,248.853550,1301.695494,-10088.140082
12585.299501,1627.119368,-1071.984525,-9131.011042
12585.302041,-650.847747,2794.816797,-10719.845248
12585.304581,-2679.961312,2871.387120,-11006.983960
12585.307120,-574.277424,-1416.550979,-9207.581365
12585.309660,-114.855485,995.414202,-9743.573627
12585.312181,1205.982590,2813.959378,-10738.987829
12585.314703,-2277.967115,-1052.841944,-9475.577496
12585.317224,2699.103893,1435.693560,-10260.423309
12585.319745,-1952.543242,-2143.969050,-9245.866526
12585.322266,-2565.105827,5551.348432,-11657.831707
12585.324787,1588.834206,-6240.481341,-8154.739421
12585.327308,497.707101,325.423874,-10049.854920
12585.329829,-612.562586,4594.219392,-11810.972354
12585.332351,784.845813,-7791.030386,-7274.180704
12585.334872,-344.566454,3866.801322,-9226.723946
12585.337393,-0.000000,3177.668413,-11294.122672
12585.339914,-516.849682,-3139.383251,-8901.300072
12585.342435,-1512.263883,957.129040,-10030.712339
12585.344956,-612.562586,287.138712,-10298.708470
12585.347477,-133.998066,-708.275490,-9858.429112
12585.349998,-1339.980656,-1320.838075,-9475.577496
12585.352520,-2316.252277,19.142581,-10011.569758
12585.355041,-1837.687757,1435.693560,-10719.845248
12585.357562,-842.273555,-2258.824534,-9188.438784
12585.360083,-440.279358,-153.140646,-9724.431046
12585.362604,-880.558717,1148.554848,-10528.419440
12585.365125,-1320.838075,-2335.394858,-9379.864592
12585.367646,-38.285162,-2469.392923,-9188.438784
12585.370168,-1416.550979,1110.269686,-10317.851051
12585.372689,-1167.697429,325.423874,-10202.995566
12585.375210,-2852.244539,-1684.547110,-9303.294269
12585.377731,2086.541307,-95.712904,-9877.571693
12585.380252,-3235.096155,-689.132909,-9686.145885
12585.382773,-574.277424,5168.496816,-11179.267187
12585.385294,2067.398726,-5876.772306,-7905.885870
12585.387816,-535.992262,5417.350366,-11140.982026
12585.390337,-2909.672282,2871.387120,-10758.130410
12585.392858,-325.423874,-5493.920690,-7733.602643
12585.395379,210.568389,6029.912952,-11600.403965
12585.397900,612.562586,-1952.543242,-10930.413637
12585.400421,114.855485,-3541.377448,-8595.018779
12585.402942,-995.414202,2526.820666,-10336.993632
12585.405463,-746.560651,1071.984525,-10298.708470
12585.407985,-172.283227,306.281293,-9686.145885
12585.410506,-19.142581,-440.279358,-9494.720077
12585.413035,-325.423874,861.416136,-10126.425243
12585.415565,248.853550,2048.256146,-10260.423309
12585.418094,172.283227,-1033.699363,-9303.294269
12585.420623,-229.710970,1378.265818,-10336.993632
12585.423152,-1167.697429,478.564520,-10183.852986
12585.425682,57.427742,229.710970,-9552.147819
12585.428211,689.132909,593.420005,-9762.716208
12585.430740,2526.820666,2565.105827,-10394.421374
12585.433269,516.849682,-1990.828403,-9341.579430
12585.435799,-3062.812928,2469.392923,-10758.130410
12585.438328,1875.972918,-555.134843,-9513.862658
12585.440857,-3311.666478,-4402.793584,-8614.161360
12585.443386,-2622.533570,6967.899411,-12385.249778
12585.445916,-995.414202,-8441.878133,-7523.034254
12585.448445,1588.834206,1588.834206,-10241.280728
12585.450974,-2545.963246,3024.527766,-11294.122672
12585.453503,-2354.537438,-5091.926493,-8441.878133
12585.456033,-1129.412267,1971.685822,-10451.849117
12585.458562,937.986459,421.136778,-10145.567824
12585.461091,-401.994197,-1416.550979,-9628.718142
12585.463620,19.142581,-823.130974,-9609.575562
12585.466150,-1186.840010,-478.564520,-9839.286531
12585.468679,-1588.834206,1091.127106,-10470.991698
12585.471208,-1167.697429,-593.420005,-9877.571693
12585.473738,-650.847747,-1703.689691,-9475.577496
12585.476267,-823.130974,1454.836141,-10394.421374
12585.478796,-0.000000,-1282.552914,-9418.149754
12585.481325,-1091.127106,-842.273555,-9705.288466
12585.483855,-1186.840010,-689.132909,-10183.852986
12585.486384,-2067.398726,344.566454,-10183.852986
12585.488913,-459.421939,-1416.550979,-9494.720077
12585.491442,535.992262,803.988394,-10126.425243
12585.493972,1148.554848,-1186.840010,-9533.005238
12585.496501,-4728.217458,1244.267752,-10317.851051
12585.499030,1014.556782,3637.090352,-10796.415571
12585.501559,1493.121302,-5800.201982,-7925.028451
12585.504089,-574.277424,8288.737486,-12212.966550
12585.506618,-2220.539373,-708.275490,-9590.432981
12585.509147,861.416136,-3158.525832,-8288.737486
12585.511676,-114.855485,6259.623922,-11964.113000
12585.514189,-784.845813,-3158.525832,-9092.725880
12585.516702,-1052.841944,-287.138712,-9513.862658
12585.519215,1033.699363,2986.242605,-10796.415571
12585.521729,1761.117434,-937.986459,-9571.290400
12585.524242,306.281293,1014.556782,-9724.431046
12585.526755,-459.421939,-19.142581,-9609.575562
12585.529268,19.142581,1052.841944,-10222.138147
12585.531781,957.129040,1627.119368,-10107.282662
12585.534294,-612.562586,-765.703232,-9379.864592
12585.536807,-708.275490,2143.969050,-10662.417506
12585.539320,-229.710970,-708.275490,-9781.858789
12585.541833,95.712904,1263.410333,-9858.429112
12585.544346,1167.697429,746.560651,-9915.856854
12585.546859,2756.531635,1550.549045,-9839.286531
12585.549372,459.421939,-1301.695494,-9399.007173
12585.551885,-2258.824534,2794.816797,-11006.983960
12585.554398,1703.689691,-1914.258080,-9207.581365
12585.556911,-306.281293,-7408.178770,-7523.034254
12585.559424,-2354.537438,6010.770371,-12078.968485
12585.561937,-995.414202,-3062.812928,-9628.718142
12585.564450,2316.252277,-4345.365842,-8078.169098
12585.566963,-803.988394,5225.924558,-11638.689126
12585.569476,-3043.670347,-3273.381317,-9341.579430
12585.571989,-1933.400661,-497.707101,-9590.432981
12585.574502,612.562586,1818.545176,-10451.849117
12585.577015,363.709035,-995.414202,-9628.718142
12585.579528,-1033.699363,-918.843878,-9628.718142
12585.582041,-516.849682,-287.138712,-9858.429112
12585.584555,-669.990328,803.988394,-10222.138147
12585.587068,-1397.408398,-593.420005,-9801.001370
12585.589581,-823.130974,-2411.965181,-9303.294269
12585.592094,-114.855485,708.275490,-10068.997501
12585.594607,-114.855485,401.994197,-10145.567824
12585.597120,-2584.248408,-2373.680019,-9456.434915
12585.599633,1263.410333,363.709035,-10222.138147
12585.602146,-765.703232,-1799.402595,-9379.864592
12585.604659,210.568389,899.701298,-10317.851051
12585.607172,-3139.383251,-1033.699363,-9724.431046
12585.609685,2737.389054,191.425808,-9877.571693
12585.612198,-555.134843,-1627.119368,-9169.296203
12585.614720,-1473.978722,5436.492947,-11370.692995
12585.617243,2335.394858,-3541.377448,-8575.876198
12585.619766,1799.402595,-5704.489078,-7599.604578
12585.622288,325.423874,7810.172966,-12174.681389
12585.624811,-1607.976787,-2297.109696,-9437.292334
12585.627333,-0.000000,-1780.260014,-8939.585234
12585.629856,669.990328,3177.668413,-10968.698798
12585.632378,1244.267752,-1952.543242,-9303.294269
12585.634901,-995.414202,421.136778,-9667.003304
12585.637423,-746.560651,2565.105827,-10700.702667
12585.639946,153.140646,-267.996131,-9781.858789
12585.642468,-267.996131,-210.568389,-9667.003304
12585.644991,-287.138712,1282.552914,-10068.997501
12585.647513,574.277424,1627.119368,-10107.282662
12585.650036,114.855485,-976.271621,-9360.722011
12585.652558,478.564520,-823.130974,-9513.862658
12585.655081,306.281293,2603.390989,-10547.562021
12585.657603,-306.281293,-1052.841944,-9456.434915
12585.660126,2105.683888,1703.689691,-9858.429112
12585.662649,-1397.408398,-306.281293,-9705.288466
12585.665171,-823.130974,2852.244539,-10872.985894
12585.667694,325.423874,-4307.080680,-8575.876198
12585.670216,-5340.780043,1933.400661,-10681.560086
12585.672739,-1435.693560,3024.527766,-11179.267187
12585.675261,95.712904,-9609.575562,-6738.188442
12585.677784,267.996131,6317.051664,-12059.825904
12585.680306,-2431.107762,-1473.978722,-9896.714274
12585.682829,-2794.816797,-4881.358104,-8518.448456
12585.685351,-746.560651,1435.693560,-10145.567824
12585.687874,976.271621,689.132909,-10202.995566
12585.690396,-957.129040,-1550.549045,-9418.149754
12585.692919,-1971.685822,-133.998066,-9915.856854
12585.695441,-1646.261949,76.570323,-10183.852986
12585.697964,-478.564520,861.416136,-10164.710405
12585.700487,-1148.554848,-2813.959378,-8920.442653
12585.703009,-1416.550979,1014.556782,-10356.136213
12585.705532,-459.421939,1110.269686,-10528.419440
12585.708054,1186.840010,-2947.957443,-8805.587168
12585.710577,-1397.408398,957.129040,-10432.706536
12585.713099,746.560651,-555.134843,-10107.282662
12585.715607,-1091.127106,-3943.371645,-8729.016845
12585.718116,1627.119368,1339.980656,-10126.425243
12585.720624,-2718.246474,-306.281293,-10260.423309
12585.723132,2373.680019,803.988394,-10011.569758
12585.725641,1914.258080,-3139.383251,-8480.163294
12585.728149,-1627.119368,5991.627790,-11562.118803
12585.730657,2220.539373,-823.130974,-9667.003304
12585.733166,2143.969050,-4115.654872,-7982.456194
12585.735674,-1473.978722,8843.872330,-12768.101394
12585.738182,-2143.969050,-4670.789715,-8575.876198
12585.740691,535.992262,-133.998066,-9437.292334
12585.743199,1588.834206,2622.533570,-10930.413637
12585.745707,3005.385186,-555.134843,-9781.858789
12585.748216,-57.427742,-995.414202,-9111.868461
12585.750724,-1282.552914,3043.670347,-10700.702667
12585.753232,382.851616,440.279358,-10107.282662
12585.755740,937.986459,-612.562586,-9628.718142
12585.758249,421.136778,1129.412267,-9858.429112
12585.760757,-421.136778,1244.267752,-10126.425243
12585.763265,-1454.836141,267.996131,-9858.429112
12585.765774,842.273555,-516.849682,-9667.003304
12585.768282,-95.712904,2029.113565,-10413.563955
12585.770790,344.566454,-57.427742,-9820.143950
12585.773299,1627.119368,1014.556782,-9494.720077
12585.775807,937.986459,-133.998066,-9762.716208
12585.778315,-2890.529701,1493.121302,-10490.134278
12585.780824,1895.115499,1799.402595,-10375.278794
12585.783332,-248.853550,-7637.889739,-7599.604578
12585.785840,-2699.103893,6623.332957,-12270.394293
12585.788349,-1952.543242,-3407.379382,-9437.292334
12585.790857,2775.674216,-4670.789715,-8116.454259
12585.793365,-631.705166,5895.914886,-11868.400096
12585.795873,-3005.385186,-3675.375514,-9207.581365
12585.798382,-1914.258080,-57.427742,-9533.005238
12585.800890,995.414202,1875.972918,-10566.704602
12585.803398,-440.279358,-2048.256146,-9303.294269
12585.805907,-1550.549045,153.140646,-10049.854920
12585.808415,-1703.689691,-133.998066,-9743.573627
12585.810923,-1435.693560,95.712904,-9915.856854
12585.813432,-1052.841944,114.855485,-10164.710405
12585.815951,-555.134843,-2220.539373,-9418.149754
12585.818470,-1033.699363,1493.121302,-10470.991698
12585.820989,-880.558717,-593.420005,-9839.286531
12585.823508,-401.994197,-3292.523898,-9035.298138
12585.826027,-2067.398726,2335.394858,-10834.700733
12585.828546,-2316.252277,-1454.836141,-9781.858789
12585.831065,-899.701298,-593.420005,-9513.862658
12585.833584,516.849682,-708.275490,-9839.286531
12585.836103,-3311.666478,2048.256146,-10509.276859
12585.838622,1914.258080,1856.830338,-10030.712339
12585.841141,1875.972918,-5704.489078,-8059.026517
12585.843660,-784.845813,4689.932296,-10968.698798
12585.846179,-3177.668413,3713.660675,-11026.126541
12585.848699,-555.134843,-5972.485210,-7657.032320
12585.851218,784.845813,5436.492947,-11370.692995
12585.853737,-516.849682,-937.986459,-9954.142016
12585.856256,-1741.974853,-2124.826469,-8958.727814
12585.858775,-76.570323,3675.375514,-10949.556218
12585.861294,2258.824534,-957.129040,-9533.005238
12585.863813,-363.709035,57.427742,-9590.432981
12585.866332,-1473.978722,2373.680019,-10700.702667
12585.868851,1454.836141,210.568389,-9820.143950
12585.871370,689.132909,-669.990328,-9035.298138
12585.873889,-229.710970,1607.976787,-10126.425243
12585.876408,-1033.699363,612.562586,-10088.140082
12585.878927,-689.132909,363.709035,-9896.714274
12585.881446,1186.840010,267.996131,-9877.571693
12585.883965,2163.111630,1741.974853,-10011.569758
12585.886484,-421.136778,-880.558717,-9475.577496
12585.889003,-2833.101958,2622.533570,-10719.845248
12585.891523,2603.390989,-1148.554848,-9552.147819
12585.894042,-2526.820666,-4307.080680,-8786.444587
12585.896561,-3522.234867,6010.770371,-12040.683323
12585.899080,-1684.547110,-7657.032320,-7848.458128
12585.901599,1416.550979,1301.695494,-10222.138147
12585.904118,-344.566454,4575.076811,-11428.120738
12585.906637,-2909.672282,-2297.109696,-9571.290400
12585.909156,-2258.824534,-344.566454,-9494.720077
12585.911675,-191.425808,1129.412267,-10356.136213
12585.914194,133.998066,-899.701298,-9781.858789
12585.916722,-325.423874,-746.560651,-9762.716208
12585.919250,-1052.841944,-899.701298,-9628.718142
12585.921778,-1473.978722,1569.691626,-10528.419440
12585.924306,-1301.695494,-1531.406464,-9552.147819
12585.926833,-689.132909,-1512.263883,-9475.577496
12585.929361,-1014.556782,1895.115499,-10643.274925
12585.931889,-1435.693560,-2067.398726,-9399.007173
12585.934417,287.138712,-1741.974853,-9399.007173
12585.936945,-421.136778,-1071.984525,-9628.718142
12585.939473,-899.701298,937.986459,-10490.134278
12585.942000,-3330.809059,-1148.554848,-9686.145885
12585.944528,2871.387120,-1014.556782,-9379.864592
12585.947056,-1703.689691,-229.710970,-9686.145885
12585.949584,-1435.693560,6125.625856,-11581.261384
12585.952112,1684.547110,-6163.911018,-7829.315547
12585.954640,-306.281293,4077.369710,-10643.274925
12585.957168,-3330.809059,4632.504554,-11466.405899
12585.959695,-861.416136,-6297.909083,-7561.319416
12585.962223,593.420005,4785.645200,-11102.696864
12585.964751,-114.855485,-401.994197,-10183.852986
12585.967279,-497.707101,-3139.383251,-8939.585234
12585.969807,-2852.244539,2201.396792,-10356.136213
12585.972335,210.568389,1071.984525,-10241.280728
12585.974863,995.414202,-555.134843,-9437.292334
12585.977390,-210.568389,937.986459,-10126.425243
12585.979918,-1378.265818,1014.556782,-10030.712339
12585.982446,-363.709035,1071.984525,-10030.712339
12585.984974,459.421939,-516.849682,-9475.577496
12585.987502,861.416136,516.849682,-9801.001370
12585.990030,-1837.687757,1875.972918,-10566.704602
12585.992558,765.703232,38.285162,-9724.431046
12585.995085,-0.000000,1761.117434,-10011.569758
12585.997599,2067.398726,3043.670347,-10604.989763
12586.000113,-1722.832272,-4326.223261,-8690.731683
12586.002627,-4517.649069,4900.500685,-11638.689126
12586.005141,669.990328,-3120.240670,-9360.722011
12586.007655,421.136778,-4517.649069,-8327.022648
12586.010169,-861.416136,6623.332957,-12404.392358
12586.012682,-325.423874,-6489.334891,-8059.026517
12586.015196,-0.000000,995.414202,-9954.142016
12586.017710,-1148.554848,2545.963246,-11160.124606
12586.020224,-2431.107762,-2660.818731,-8920.442653
12586.022738,-1493.121302,1263.410333,-10241.280728
12586.025252,382.851616,-497.707101,-10011.569758
12586.027766,1512.263883,-823.130974,-9858.429112
12586.030280,-382.851616,-1148.554848,-9456.434915
12586.032793,-2871.387120,-535.992262,-9667.003304
12586.035307,-1244.267752,1550.549045,-10719.845248
12586.037821,727.418070,-2469.392923,-9265.009107
12586.040335,210.568389,-191.425808,-9915.856854
12586.042849,-1435.693560,-784.845813,-9954.142016
12586.045363,-2067.398726,-306.281293,-9743.573627
12586.047877,-1033.699363,-459.421939,-9992.427178
12586.050390,-133.998066,-210.568389,-9992.427178
12586.052904,-1703.689691,-1780.260014,-9475.577496
12586.055418,-3081.955509,3349.951640,-10700.702667
12586.057932,3656.232933,114.855485,-9341.579430
12586.060446,1148.554848,-5436.492947,-8116.454259
12586.062960,-325.423874,7216.752962,-11849.257515
12586.065474,-2507.678085,-95.712904,-9724.431046
12586.067987,191.425808,-3158.525832,-8307.880067
12586.070501,172.283227,5647.061336,-11600.403965
12586.073015,-421.136778,-2431.107762,-9456.434915
12586.075529,-1607.976787,248.853550,-9781.858789
12586.078043,1091.127106,1722.832272,-10336.993632
12586.080557,1799.402595,-631.705166,-9418.149754
12586.083071,248.853550,1225.125171,-10049.854920
12586.085584,-1033.699363,1071.984525,-10222.138147
12586.088098,937.986459,765.703232,-10088.140082
12586.090612,1014.556782,57.427742,-9609.575562
12586.093126,1339.980656,-555.134843,-9456.434915
12586.095640,535.992262,1148.554848,-10088.140082
12586.098164,-1454.836141,995.414202,-10260.423309
12586.100687,746.560651,746.560651,-9915.856854
12586.103211,-689.132909,1339.980656,-9934.999435
12586.105735,2584.248408,1378.265818,-10068.997501
12586.108259,-2431.107762,-2660.818731,-8958.727814
12586.110783,-1856.830338,5685.346498,-11868.400096
12586.113306,1588.834206,-6833.901346,-8097.311678
12586.115830,-535.992262,153.140646,-9934.999435
12586.118354,-1646.261949,3866.801322,-11657.831707
12586.120878,1167.697429,-7293.323285,-7580.461997
12586.123401,-191.425808,-1339.980656,-9207.581365
12586.125925,-708.275490,3560.520029,-11466.405899
12586.128449,-2124.826469,-2565.105827,-9169.296203
12586.130973,-1837.687757,650.847747,-9839.286531
12586.133496,899.701298,-363.709035,-10030.712339
12586.136020,478.564520,-1167.697429,-9896.714274
12586.138544,-1569.691626,631.705166,-9992.427178
12586.141068,-2297.109696,-1473.978722,-9456.434915
12586.143592,-784.845813,1091.127106,-10394.421374
12586.146115,153.140646,-1205.982590,-9801.001370
12586.148639,-459.421939,-1569.691626,-9494.720077
12586.151163,95.712904,-172.283227,-10145.567824
12586.153687,-1952.543242,-650.847747,-9762.716208
12586.156210,-765.703232,-267.996131,-9973.284597
12586.158734,-2794.816797,-344.566454,-10049.854920
12586.161258,2009.970984,-1244.267752,-9590.432981
12586.163782,-2909.672282,210.568389,-9609.575562
12586.166306,287.138712,5513.063270,-11313.265253
12586.168829,2086.541307,-5915.057467,-7829.315547
12586.171353,-803.988394,5225.924558,-11236.694930
12586.173877,-3464.807125,2986.242605,-10930.413637
12586.176401,-746.560651,-5685.346498,-7618.747158
12586.178924,574.277424,5761.916821,-11389.835576
12586.181448,-133.998066,-1531.406464,-9781.858789
12586.183972,-2163.111630,-899.701298,-9418.149754
12586.186496,-2392.822600,2718.246474,-10700.702667
12586.189019,-421.136778,0.000000,-9877.571693
12586.191543,1646.261949,842.273555,-9839.286531
12586.194067,-1014.556782,-267.996131,-9705.288466
12586.196591,-842.273555,1301.695494,-10164.710405
12586.199102,-363.709035,1282.552914,-10107.282662
12586.201613,957.129040,-708.275490,-9437.292334
12586.204124,248.853550,1722.832272,-10260.423309
12586.206635,-133.998066,76.570323,-10088.140082
12586.209147,2182.254211,1359.123237,-9858.429112
12586.211658,-516.849682,-382.851616,-9456.434915
12586.214169,-593.420005,3541.377448,-10892.128475
12586.216680,363.709035,-3962.514226,-8748.159426
12586.219191,-3081.955509,-5264.209720,-8422.735552
12586.221702,-2890.529701,6795.616184,-12461.820101
12586.224214,-1397.408398,-7829.315547,-7848.458128
12586.226725,1665.404530,210.568389,-9762.716208
12586.229236,-1607.976787,4230.510357,-11772.687192
12586.231747,-1512.263883,-5321.637462,-8365.307810
12586.234258,-516.849682,1799.402595,-10183.852986
12586.236769,306.281293,555.134843,-10202.995566
12586.239281,-1607.976787,-1339.980656,-9437.292334
12586.241792,-1110.269686,-937.986459,-9762.716208
12586.244303,-440.279358,555.134843,-10279.565890
12586.246814,248.853550,363.709035,-10030.712339
12586.249325,-784.845813,-2392.822600,-9265.009107
12586.251836,-708.275490,-861.416136,-9609.575562
12586.254348,-2201.396792,1741.974853,-10911.271056
12586.256859,153.140646,-3962.514226,-9016.155557
12586.259370,-995.414202,574.277424,-9934.999435
12586.261881,-1875.972918,784.845813,-10547.562021
12586.264392,-2297.109696,-1378.265818,-9418.149754
12586.266903,-1818.545176,-1914.258080,-9552.147819
12586.269415,-2143.969050,4192.225195,-11121.839445
12586.271926,4096.512291,-995.414202,-8997.012976
12586.274437,-382.851616,-1607.976787,-9111.868461
12586.276948,555.134843,8575.876198,-12634.103328
12586.279459,650.847747,-6163.911018,-7733.602643
12586.281970,363.709035,-3617.947771,-8154.739421
12586.284482,210.568389,5838.487144,-11542.976222
12586.286993,-765.703232,-1722.832272,-9571.290400
12586.289504,-746.560651,267.996131,-9762.716208
12586.292015,1435.693560,555.134843,-10068.997501
12586.294526,1378.265818,555.134843,-10011.569758
12586.297037,-1033.699363,899.701298,-9801.001370
12586.299559,-976.271621,306.281293,-10011.569758
12586.302081,1627.119368,1895.115499,-10624.132344
12586.304603,1205.982590,-1320.838075,-9207.581365
12586.307125,-555.134843,1091.127106,-9839.286531
12586.309647,-287.138712,2469.392923,-10547.562021
12586.312168,76.570323,-1148.554848,-9762.716208
12586.314690,3120.240670,1473.978722,-9781.858789
12586.317212,765.703232,-306.281293,-9552.147819
12586.319734,-1971.685822,3139.383251,-10834.700733
12586.322256,1225.125171,-2833.101958,-8939.585234
12586.324778,-3732.803256,-1569.691626,-9820.143950
12586.327300,-2009.970984,4900.500685,-11849.257515
12586.329821,-1052.841944,-9743.573627,-6891.329088
12586.332343,38.285162,4345.365842,-11140.982026
12586.334865,-957.129040,1550.549045,-10853.843314
12586.337387,-727.418070,-5781.059402,-7925.028451
12586.339909,-708.275490,3828.516160,-11160.124606
12586.342431,-1473.978722,-995.414202,-9839.286531
12586.344953,-746.560651,-1856.830338,-9207.581365
12586.347474,-899.701298,-708.275490,-9686.145885
12586.349996,-708.275490,95.712904,-10279.565890
12586.352518,-669.990328,880.558717,-10394.421374
12586.355040,-1607.976787,-2641.676150,-9016.155557
12586.357562,-1244.267752,248.853550,-10049.854920
12586.360084,-2009.970984,957.129040,-10719.845248
12586.362605,861.416136,-4058.227130,-8843.872330
12586.365127,-1148.554848,535.992262,-10088.140082
12586.367649,-2450.250342,1167.697429,-10738.987829
12586.370171,-3043.670347,-1952.543242,-9303.294269
12586.372693,-574.277424,-1818.545176,-9494.720077
12586.375215,-2105.683888,3790.230998,-10068.997501
12586.377737,229.710970,5608.776174,-11447.263318
12586.380258,1607.976787,-6278.766502,-7637.889739
12586.382780,-918.843878,5589.633594,-11236.694930
12586.385302,-3330.809059,2909.672282,-11083.554283
12586.387824,-746.560651,-5647.061336,-7771.887805
12586.390346,612.562586,5398.207786,-11064.411702
12586.392868,-765.703232,-440.279358,-9973.284597
12586.395390,-1397.408398,-593.420005,-9456.434915
12586.397911,976.271621,1110.269686,-10126.425243
12586.400443,2450.250342,-401.994197,-9647.860723
12586.402973,-1818.545176,976.271621,-10011.569758
12586.405504,-1875.972918,995.414202,-10260.423309
12586.408035,-880.558717,1397.408398,-10317.851051
12586.410566,861.416136,937.986459,-9954.142016
12586.413096,1799.402595,-287.138712,-9322.436850
12586.415627,-1933.400661,1531.406464,-10279.565890
12586.418158,-1052.841944,1799.402595,-10566.704602
12586.420689,210.568389,497.707101,-9590.432981
12586.423219,4230.510357,287.138712,-9705.288466
12586.425750,-2603.390989,650.847747,-10088.140082
12586.428281,191.425808,2679.961312,-10719.845248
12586.430812,-0.000000,-7503.891674,-7848.458128
12586.433342,-2316.252277,5225.924558,-11906.685258
12586.435873,-1761.117434,-2086.541307,-9781.858789
12586.438404,1052.841944,-5053.641331,-7561.319416
12586.440934,-574.277424,3273.381317,-10738.987829
12586.443465,-2048.256146,1339.980656,-11045.269122
12586.445996,-2794.816797,-3656.232933,-8652.446522
12586.448527,57.427742,2545.963246,-10490.134278
12586.451057,612.562586,-861.416136,-9858.429112
12586.453588,57.427742,-631.705166,-9647.860723
12586.456119,-1282.552914,-325.423874,-9762.716208
12586.458650,-1320.838075,153.140646,-10183.852986
12586.461180,-1550.549045,172.283227,-10049.854920
12586.463711,-803.988394,-2124.826469,-9303.294269
12586.466242,-1244.267752,-114.855485,-10241.280728
12586.468773,38.285162,593.420005,-10260.423309
12586.471303,-1799.402595,-1493.121302,-9513.862658
12586.473834,-0.000000,-306.281293,-9839.286531
12586.476365,-2641.676150,-918.843878,-10049.854920
12586.478896,-1895.115499,3235.096155,-10777.272990
12586.481426,4881.358104,-2124.826469,-8709.874264
12586.483957,325.423874,1167.697429,-9992.427178
12586.486488,1186.840010,6776.473603,-12002.398162
12586.489019,1014.556782,-7159.325219,-7293.323285
12586.491549,631.705166,5302.494882,-11313.265253
12586.494080,-1301.695494,1799.402595,-10777.272990
12586.496611,1071.984525,-3407.379382,-8403.592971
12586.499142,3464.807125,2909.672282,-10528.419440
12586.501680,2009.970984,555.134843,-10202.995566
12586.504218,-1110.269686,937.986459,-10222.138147
12586.506756,-708.275490,708.275490,-9973.284597
12586.509294,1320.838075,-1263.410333,-9399.007173
12586.511833,899.701298,3981.656806,-11102.696864
12586.514371,287.138712,-1071.984525,-9379.864592
12586.516909,1205.982590,-325.423874,-9284.151688
12586.519447,-1186.840010,4173.082614,-11198.409768
12586.521985,57.427742,-1167.697429,-9533.005238
12586.524524,1952.543242,1052.841944,-9571.290400
12586.527062,2469.392923,153.140646,-9896.714274
12586.529600,-2679.961312,2105.683888,-10547.562021
12586.532138,2450.250342,-478.564520,-9552.147819
12586.534676,746.560651,-8518.448456,-7561.319416
12586.537214,-2316.252277,4211.367776,-11523.833642
12586.539753,-1627.119368,593.420005,-10738.987829
12586.542291,2679.961312,-6910.471669,-7350.751027
12586.544829,-267.996131,6087.340694,-11753.544611
12586.547367,-2354.537438,-1799.402595,-10011.569758
12586.549905,-2450.250342,-2297.109696,-8939.585234
12586.552444,497.707101,2373.680019,-10738.987829
12586.554982,325.423874,-1320.838075,-9609.575562
12586.557520,-440.279358,-746.560651,-9552.147819
12586.560058,-1435.693560,76.570323,-10011.569758
12586.562596,-1014.556782,727.418070,-10413.563955
12586.565135,-1435.693560,516.849682,-10279.565890
12586.567673,-363.709035,-3139.383251,-8958.727814
12586.570211,-172.283227,-114.855485,-10126.425243
12586.572749,-1014.556782,880.558717,-10394.421374
12586.575287,-1435.693560,-2201.396792,-9475.577496
12586.577826,133.998066,957.129040,-10145.567824
12586.580364,-3254.238736,-1818.545176,-9686.145885
12586.582902,-2526.820666,3139.383251,-10738.987829
12586.585440,4881.358104,-1110.269686,-9092.725880
12586.587978,172.283227,19.142581,-9686.145885
12586.590517,803.988394,7829.315547,-12212.966550
12586.593055,842.273555,-6948.756830,-7331.608446
12586.595593,478.564520,4575.076811,-11083.554283
12586.598131,-382.851616,6757.331022,-12021.540742
12586.600669,-19.142581,-2852.244539,-8939.585234
12586.603214,1205.982590,861.416136,-9686.145885
12586.605759,1799.402595,1129.412267,-10298.708470
12586.608304,-1244.267752,191.425808,-9973.284597
12586.610849,-1148.554848,1320.838075,-10145.567824
12586.613394,1493.121302,-1454.836141,-9437.292334
12586.615939,1339.980656,2833.101958,-10624.132344
12586.618484,-38.285162,229.710970,-9820.143950
12586.621029,689.132909,-191.425808,-9226.723946
12586.623574,-1397.408398,2852.244539,-10777.272990
12586.626119,-133.998066,-57.427742,-9839.286531
12586.628664,-2258.824534,-880.558717,-9341.579430
12586.631208,2124.826469,2775.674216,-10470.991698
12586.633753,-593.420005,-3273.381317,-8843.872330
12586.636298,-4173.082614,4651.647134,-11600.403965
12586.638843,-57.427742,-3981.656806,-9111.868461
12586.641388,-918.843878,-4058.227130,-8537.591037
12586.643933,-746.560651,6814.758765,-12423.534939
12586.646478,1263.410333,-6814.758765,-7810.172966
12586.649023,-191.425808,1320.838075,-10088.140082
12586.651568,-2488.535504,3062.812928,-11466.405899
12586.654113,-3598.805190,-4173.082614,-8595.018779
12586.656658,-459.421939,1895.115499,-10317.851051
12586.659202,1512.263883,-689.132909,-9896.714274
12586.661747,1033.699363,363.709035,-10011.569758
12586.664292,-497.707101,-899.701298,-9513.862658
12586.666837,-2392.822600,-1493.121302,-9513.862658
12586.669382,-2584.248408,2048.256146,-10872.985894
12586.671927,-1741.974853,-2641.676150,-9552.147819
12586.674472,2124.826469,-708.275490,-9628.718142
12586.677017,459.421939,267.996131,-10011.569758
12586.679562,-765.703232,-957.129040,-9724.431046
12586.682107,-3866.801322,-57.427742,-10049.854920
12586.684652,1722.832272,-267.996131,-9915.856854
12586.687196,-880.558717,-1607.976787,-9207.581365
12586.689741,191.425808,6527.620053,-11638.689126
12586.692286,3062.812928,516.849682,-9877.571693
12586.694831,421.136778,-4096.512291,-7963.313613
12586.697376,-2163.111630,8346.165229,-12710.673651
12586.699921,-1454.836141,-4613.361973,-8652.446522
12586.702466,1588.834206,-57.427742,-9150.153622
12586.705016,2277.967115,3196.810994,-10930.413637
12586.707567,-880.558717,-2277.967115,-9111.868461
12586.710117,-1607.976787,1837.687757,-10260.423309
12586.712668,-727.418070,-803.988394,-9724.431046
12586.715218,-229.710970,1320.838075,-10356.136213
12586.717768,-325.423874,746.560651,-9934.999435
12586.720319,995.414202,-842.273555,-9226.723946
12586.722869,1225.125171,3483.949706,-10624.132344
12586.725420,-1550.549045,1167.697429,-10222.138147
12586.727970,-803.988394,-267.996131,-9762.716208
12586.730520,-899.701298,2603.390989,-10451.849117
12586.733071,3273.381317,-689.132909,-9552.147819
12586.735621,-1646.261949,-229.710970,-9705.288466
12586.738172,363.709035,3809.373579,-11045.269122
12586.740722,-765.703232,-8250.452325,-7695.317482
12586.743272,-2986.242605,4709.074877,-11676.974288
12586.745823,-1397.408398,-1569.691626,-10068.997501
12586.748373,2469.392923,-5053.641331,-7982.456194
12586.750924,-363.709035,6240.481341,-11887.542677
12586.753474,-1550.549045,-3369.094221,-9341.579430
12586.756025,-3617.947771,-3771.088418,-8690.731683
12586.758575,-210.568389,1971.685822,-10375.278794
12586.761125,1263.410333,-1665.404530,-9628.718142
12586.763676,-363.709035,1071.984525,-10126.425243
12586.766226,-1033.699363,-497.707101,-9686.145885
12586.768777,-650.847747,-2029.113565,-9437.292334
12586.771327,-2201.396792,2009.970984,-10815.558152
12586.773877,-3292.523898,-3273.381317,-9188.438784
12586.776428,1454.836141,133.998066,-9934.999435
12586.778978,1780.260014,-593.420005,-9877.571693
12586.781529,-210.568389,-1397.408398,-9571.290400
12586.784079,-4173.082614,631.705166,-10241.280728
12586.786629,267.996131,-1282.552914,-10490.134278
12586.789180,2009.970984,-3483.949706,-8461.020714
12586.791730,267.996131,6431.907149,-11562.118803
12586.794281,3177.668413,-2048.256146,-9111.868461
12586.796831,-0.000000,-1856.830338,-8709.874264
12586.799381,-3292.523898,7848.458128,-12595.818166
12586.801932,-1837.687757,-5972.485210,-8154.739421
12586.804482,995.414202,1588.834206,-9762.716208
12586.807037,1665.404530,2431.107762,-10738.987829
12586.809592,-1033.699363,-1895.115499,-9111.868461
12586.812147,-918.843878,1512.263883,-10183.852986
12586.814702,-593.420005,-803.988394,-9743.573627
12586.817256,-1167.697429,1971.685822,-10624.132344
12586.819811,-191.425808,2105.683888,-10470.991698
12586.822366,708.275490,-1952.543242,-8939.585234
12586.824921,1378.265818,3790.230998,-10566.704602
12586.827476,-1473.978722,153.140646,-9877.571693
12586.830031,-1129.412267,-325.423874,-9686.145885
12586.832586,-1914.258080,3196.810994,-10872.985894
12586.835140,2986.242605,-382.851616,-9552.147819
12586.837695,-612.562586,-1933.400661,-8958.727814
12586.840250,-1512.263883,5589.633594,-11772.687192
12586.842805,-440.279358,-7427.321350,-8078.169098
12586.845360,-1895.115499,1397.408398,-10509.276859
12586.847915,-899.701298,1914.258080,-11160.124606
12586.850470,918.843878,-6144.768437,-8422.735552
12586.853024,-363.709035,19.142581,-9609.575562
12586.855579,-2277.967115,3235.096155,-11236.694930
12586.858134,-3694.518094,-3407.379382,-8977.870395
12586.860689,-1167.697429,1359.123237,-10298.708470
12586.863244,1952.543242,-1607.976787,-9609.575562
12586.865799,248.853550,574.277424,-10088.140082
12586.868353,-1895.115499,497.707101,-10107.282662
12586.870908,-1301.695494,-2584.248408,-9265.009107
12586.873463,-1665.404530,1244.267752,-10547.562021
12586.876018,-1895.115499,-2947.957443,-9418.149754
12586.878573,-650.847747,248.853550,-9954.142016
12586.881128,861.416136,344.566454,-10317.851051
12586.883683,-363.709035,-823.130974,-9762.716208
12586.886237,-2584.248408,-2756.531635,-9226.723946
12586.888792,-3273.381317,4747.360038,-11332.407834
12586.891347,3981.656806,-2048.256146,-8843.872330
12586.893902,650.847747,210.568389,-9552.147819
12586.896457,2775.674216,7235.895542,-11983.255581
12586.899012,459.421939,-6125.625856,-7408.178770
12586.901567,-746.560651,4536.791650,-11083.554283
12586.904121,-937.986459,1550.549045,-10853.843314
12586.906676,1282.552914,-3235.096155,-8499.305875
12586.909235,3330.809059,3330.809059,-10509.276859
12586.911794,765.703232,-803.988394,-9801.001370
12586.914353,-2297.109696,1761.117434,-10202.995566
12586.916911,-1244.267752,899.701298,-10164.710405
12586.919470,1550.549045,-1952.543242,-9207.581365
12586.922029,1167.697429,3637.090352,-10853.843314
12586.924588,574.277424,440.279358,-9762.716208
12586.927146,191.425808,-421.136778,-9245.866526
12586.929705,-535.992262,3369.094221,-10968.698798
12586.932264,1167.697429,-191.425808,-9667.003304
12586.934823,-57.427742,-1684.547110,-9188.438784
12586.937382,-727.418070,4823.930362,-11466.405899
12586.939940,2718.246474,-3235.096155,-8709.874264
12586.942499,-3828.516160,-1990.828403,-9418.149754
12586.945058,-3349.951640,4747.360038,-12040.683323
12586.947617,-2660.818731,-4115.654872,-9245.866526
12586.950176,1741.974853,-2890.529701,-8748.159426
12586.952734,344.566454,5513.063270,-11638.689126
12586.955293,-382.851616,-4364.508422,-8748.159426
12586.957852,-2277.967115,421.136778,-9820.143950
12586.960411,-1205.982590,1110.269686,-10547.562021
12586.962969,-2143.969050,-1799.402595,-9590.432981
12586.965528,-421.136778,803.988394,-10107.282662
12586.968087,1320.838075,-1588.834206,-9322.436850
12586.970646,-421.136778,823.130974,-10222.138147
12586.973205,-3675.375514,-421.136778,-10088.140082
12586.975763,-3771.088418,-2679.961312,-9494.720077
12586.978322,861.416136,2431.107762,-10662.417506
12586.980881,1416.550979,-1129.412267,-9743.573627
12586.983440,1493.121302,-2373.680019,-9111.868461
12586.985998,-4402.793584,1091.127106,-10604.989763
12586.988557,-1205.982590,1550.549045,-10432.706536
12586.991116,2852.244539,-3885.943902,-8173.882002
12586.993675,535.992262,5934.200048,-11485.548480
12586.996234,2909.672282,-19.142581,-9839.286531
12586.998792,708.275490,-3177.668413,-8173.882002
12587.001351,-2143.969050,7484.749093,-12385.249778
12587.003910,-1971.685822,-4077.369710,-9016.155557
12587.006469,516.849682,-344.566454,-9399.007173
12587.009028,2163.111630,2450.250342,-10604.989763
12587.011589,727.418070,-555.134843,-9820.143950
12587.014151,-1722.832272,1895.115499,-10394.421374
12587.016712,-306.281293,-1091.127106,-9456.434915
12587.019274,727.418070,-267.996131,-9724.431046
12587.021836,-937.986459,3751.945837,-11026.126541
12587.024397,995.414202,-1761.117434,-8939.585234
12587.026959,957.129040,2392.822600,-10068.997501
12587.029521,-842.273555,2182.254211,-10604.989763
12587.032082,344.566454,-1014.556782,-9207.581365
12587.034644,-918.843878,248.853550,-9896.714274
12587.037206,-727.418070,4364.508422,-11389.835576
12587.039767,2660.818731,-4670.789715,-8154.739421
12587.042329,-4326.223261,440.279358,-7829.315547
12587.044891,-4307.080680,6451.049730,-12461.820101
12587.047452,-3713.660675,-5972.485210,-8786.444587
12587.050014,1627.119368,-1799.402595,-9131.011042
12587.052576,765.703232,5130.211654,-11466.405899
12587.055137,-267.996131,-4555.934230,-8575.876198
12587.057699,-1722.832272,976.271621,-9877.571693
12587.060261,-1512.263883,516.849682,-10298.708470
12587.062822,-2660.818731,-1205.982590,-9801.001370
12587.065384,-401.994197,229.710970,-9973.284597
12587.067946,1435.693560,-1588.834206,-9379.864592
12587.070507,-918.843878,1435.693560,-10432.706536
12587.073069,-3215.953574,-1244.267752,-9762.716208
12587.075630,-2163.111630,-4383.651003,-8805.587168
12587.078192,-1225.125171,2660.818731,-10834.700733
12587.080754,344.566454,-918.843878,-9934.999435
12587.083315,937.986459,-2488.535504,-8997.012976
12587.085877,-3579.662610,497.707101,-10528.419440
12587.088439,-2526.820666,2679.961312,-10892.128475
12587.091000,3694.518094,-3464.807125,-8231.309744
12587.093562,478.564520,3464.807125,-10643.274925
12587.096124,2584.248408,3771.088418,-11006.983960
12587.098685,1416.550979,-5225.924558,-7599.604578
12587.101247,-842.273555,6604.190376,-11734.402030
12587.103809,-1703.689691,-976.271621,-10011.569758
12587.106370,689.132909,-2660.818731,-8901.300072
12587.108932,2852.244539,1914.258080,-9954.142016
12587.111494,2373.680019,95.712904,-9839.286531
12587.114058,-2450.250342,1933.400661,-10547.562021
12587.116622,-899.701298,-76.570323,-9839.286531
12587.119187,2373.680019,-1933.400661,-9226.723946
12587.121751,95.712904,4287.938099,-11083.554283
12587.124316,248.853550,-133.998066,-9590.432981
12587.126880,229.710970,-287.138712,-9284.151688
12587.129444,-689.132909,3981.656806,-11160.124606
12587.132009,-1416.550979,-191.425808,-9552.147819
12587.134573,1569.691626,-1837.687757,-9111.868461
12587.137138,-1684.547110,3292.523898,-11045.269122
12587.139702,-1320.838075,5800.201982,-11868.400096
12587.142266,535.992262,-7791.030386,-7676.174901
12587.144831,-1646.261949,57.427742,-10088.140082
12587.147395,-2679.961312,3656.232933,-11849.257515
12587.149960,1435.693560,-6987.041992,-7676.174901
12587.152524,114.855485,3981.656806,-10872.985894
12587.155088,-1301.695494,995.414202,-10700.702667
12587.157653,-2756.531635,-3311.666478,-8767.302006
12587.160217,-191.425808,2048.256146,-10413.563955
12587.162782,19.142581,-1263.410333,-9762.716208
12587.165346,-880.558717,765.703232,-10164.710405
12587.167910,555.134843,-1416.550979,-9399.007173
12587.170475,-153.140646,-861.416136,-9839.286531
12587.173039,-2928.814862,1569.691626,-10815.558152
12587.175604,172.283227,-1703.689691,-9552.147819
12587.178168,1014.556782,-2909.672282,-8843.872330
12587.180732,976.271621,2756.531635,-11121.839445
12587.183297,-2967.100024,-1780.260014,-9628.718142
12587.185861,918.843878,-2603.390989,-8958.727814
12587.188426,-4153.940034,1780.260014,-10298.708470
12587.190990,306.281293,4938.785846,-11389.835576
12587.193554,2813.959378,-6010.770371,-7676.174901
12587.196119,574.277424,6833.901346,-11370.692995
12587.198683,-2756.531635,2526.820666,-10451.849117
12587.201248,-1014.556782,-5245.067139,-8001.598774
12587.203812,516.849682,976.271621,-9801.001370
12587.206376,1129.412267,1971.685822,-10662.417506
12587.208941,-1493.121302,-1186.840010,-9475.577496
12587.211505,765.703232,1435.693560,-9954.142016
12587.214070,555.134843,-1607.976787,-9360.722011
12587.216636,-2603.390989,2909.672282,-11064.411702
12587.219202,-1761.117434,-38.285162,-9858.429112
12587.221769,3081.955509,-1091.127106,-9035.298138
12587.224335,1148.554848,4938.785846,-11064.411702
12587.226902,-459.421939,-1607.976787,-9150.153622
12587.229468,880.558717,1091.127106,-9705.288466
12587.232034,-287.138712,1244.267752,-10375.278794
12587.234601,-937.986459,1818.545176,-10528.419440
12587.237167,3349.951640,-191.425808,-9494.720077
12587.239734,-1454.836141,-5876.772306,-8135.596840
12587.242300,-4173.082614,6680.760699,-12442.677520
12587.244866,-2641.676150,-6202.196179,-8748.159426
12587.247433,1531.406464,-2928.814862,-8882.157491
12587.249999,-19.142581,6661.618118,-12040.683323
12587.252566,76.570323,-5436.492947,-8365.307810
12587.255132,-918.843878,708.275490,-9705.288466
12587.257698,-1627.119368,1359.123237,-10566.704602
12587.260265,-3139.383251,-1895.115499,-9552.147819
12587.262831,-38.285162,19.142581,-9839.286531
12587.265398,1244.267752,-1435.693560,-9418.149754
12587.267964,-440.279358,-153.140646,-10068.997501
12587.270530,-4173.082614,650.847747,-10528.419440
12587.273097,-363.709035,-3617.947771,-8939.585234
12587.275663,287.138712,899.701298,-10126.425243
12587.278230,267.996131,114.855485,-10317.851051
12587.280796,-2545.963246,-1875.972918,-9303.294269
12587.283363,-440.279358,-1167.697429,-9762.716208
12587.285929,-4689.932296,1856.830338,-10470.991698
12587.288495,1952.543242,2545.963246,-10260.423309
12587.291062,1148.554848,-4728.217458,-8193.024582
12587.293628,76.570323,9188.438784,-12461.820101
12587.296195,-382.851616,-1569.691626,-9111.868461
12587.298761,210.568389,-2890.529701,-8346.165229
12587.301327,-421.136778,4096.512291,-10930.413637
12587.303894,-555.134843,727.418070,-10470.991698
12587.306460,-861.416136,-1339.980656,-9245.866526
12587.309027,2756.531635,1531.406464,-10049.854920
12587.311593,153.140646,-957.129040,-9533.005238
12587.314159,-3024.527766,3254.238736,-11064.411702
12587.316726,-363.709035,-1435.693560,-9303.294269
12587.319274,3062.812928,363.709035,-9494.720077
12587.321822,631.705166,4651.647134,-11045.269122
12587.324370,-133.998066,-2679.961312,-8767.302006
12587.326919,937.986459,3081.955509,-10375.278794
12587.329467,727.418070,38.285162,-10107.282662
12587.332015,-1875.972918,-401.994197,-9896.714274
12587.334563,2928.814862,2048.256146,-10183.852986
12587.337111,-957.129040,-6814.758765,-7867.600709
12587.339660,-3617.947771,5934.200048,-12155.538808
12587.342208,-2373.680019,-4230.510357,-9303.294269
12587.344756,1454.836141,-4747.360038,-8384.450390
12587.347304,-153.140646,7752.745224,-12346.964616
12587.349852,210.568389,-5340.780043,-8441.878133
12587.352400,-1129.412267,95.712904,-9533.005238
12587.354949,-1550.549045,2277.967115,-11006.983960
12587.357497,-2679.961312,-2354.537438,-9399.007173
12587.360045,459.421939,229.710970,-9915.856854
12587.362593,1148.554848,-1684.547110,-9399.007173
12587.365141,-459.421939,-516.849682,-10068.997501
12587.367690,-3905.086483,612.562586,-10624.132344
12587.370238,-1014.556782,-2718.246474,-9131.011042
12587.372786,535.992262,497.707101,-10030.712339
12587.375334,2067.398726,-325.423874,-10088.140082
12587.377882,-3579.662610,-1990.828403,-9360.722011
12587.380431,880.558717,708.275490,-10241.280728
12587.382979,-2316.252277,-2124.826469,-9111.868461
12587.385527,76.570323,6489.334891,-11657.831707
12587.388075,2488.535504,-5283.352301,-8078.169098
12587.390623,-382.851616,4019.941968,-10451.849117
12587.393172,-2526.820666,5187.639397,-11485.548480
12587.395720,-1435.693560,-6987.041992,-8461.020714
12587.398268,669.990328,-535.992262,-9245.866526
12587.400816,842.273555,3254.238736,-11198.409768
12587.403364,-1512.263883,-2431.107762,-8997.012976
12587.405913,-497.707101,2565.105827,-10202.995566
12587.408461,765.703232,-1569.691626,-9360.722011
12587.411009,-1665.404530,1473.978722,-10356.136213
12587.413557,-1627.119368,2048.256146,-10413.563955
12587.416105,2258.824534,-1493.121302,-8920.442653
12587.418654,823.130974,3483.949706,-10624.132344
12587.421209,-478.564520,344.566454,-9762.716208
12587.423761,-3866.801322,746.560651,-9801.001370
12587.426313,2411.965181,2201.396792,-10681.560086
12587.428865,459.421939,-4479.363907,-8690.731683
12587.431417,-3522.234867,4364.508422,-11255.837510
12587.433970,-363.709035,-2507.678085,-9475.577496
12587.436522,-1378.265818,-5493.920690,-8250.452325
12587.439074,-1339.980656,6527.620053,-12461.820101
12587.441626,861.416136,-6776.473603,-7944.171032
12587.444178,-1435.693560,1741.974853,-10049.854920
12587.446731,-1569.691626,4000.799387,-11581.261384
12587.449283,-1895.115499,-5417.350366,-8193.024582
12587.451835,133.998066,2584.248408,-10413.563955
12587.454387,-593.420005,-1014.556782,-9954.142016
12587.456940,-976.271621,535.992262,-10088.140082
12587.459492,-0.000000,-1129.412267,-10298.708470
12587.462044,-2507.678085,-3905.086483,-9035.298138
12587.464596,401.994197,1627.119368,-10643.274925
12587.467148,-38.285162,-1741.974853,-9456.434915
12587.469701,-1167.697429,-1225.125171,-9494.720077
12587.472253,-229.710970,2584.248408,-10949.556218
12587.474805,-1186.840010,-4881.358104,-8709.874264
12587.477357,-2813.959378,4077.369710,-10949.556218
12587.479909,2871.387120,19.142581,-9533.005238
12587.482462,-248.853550,-1703.689691,-9207.581365
12587.485014,2373.680019,9073.583299,-12519.247843
12587.487566,1703.689691,-6259.623922,-7369.893608
12587.490118,-708.275490,3981.656806,-10624.132344
12587.492671,-1473.978722,7006.184573,-12289.536874
12587.495223,287.138712,-3445.664544,-9092.725880
12587.497775,1837.687757,823.130974,-9743.573627
12587.500327,2526.820666,1282.552914,-10202.995566
12587.502879,-1627.119368,0.000000,-9724.431046
12587.505432,-1569.691626,2450.250342,-10662.417506
12587.507984,1990.828403,-2239.681954,-9016.155557
12587.510536,2411.965181,2737.389054,-10432.706536
12587.513088,-823.130974,2029.113565,-10375.278794
12587.515640,19.142581,-1454.836141,-9092.725880
12587.518193,708.275490,4402.793584,-10892.128475
12587.520745,2392.822600,-2163.111630,-9245.866526
12587.523281,-1263.410333,-3483.949706,-8729.016845
12587.525817,-248.853550,5991.627790,-11676.974288
12587.528353,191.425808,-7695.317482,-7752.745224
12587.530890,-1378.265818,2335.394858,-10796.415571
12587.533426,-1205.982590,918.843878,-10911.271056
12587.535962,784.845813,-7542.176835,-7561.319416
12587.538498,-765.703232,7465.606512,-11983.255581
12587.541034,363.709035,-2775.674216,-9379.864592
12587.543571,-1263.410333,-2392.822600,-8767.302006
12587.546107,-382.851616,3617.947771,-11045.269122
12587.548643,-2392.822600,-3445.664544,-9111.868461
12587.551179,-1493.121302,2067.398726,-10624.132344
12587.553715,382.851616,-2163.111630,-9399.007173
12587.556252,-937.986459,-3905.086483,-8997.012976
12587.558788,-248.853550,1722.832272,-10738.987829
12587.561324,-1359.123237,-2813.959378,-9169.296203
12587.563860,-1875.972918,612.562586,-10164.710405
12587.566396,612.562586,1167.697429,-10528.419440
12587.568932,-1818.545176,-5015.356170,-8575.876198
12587.571469,-2718.246474,5283.352301,-11485.548480
12587.574005,2833.101958,-2201.396792,-8767.302006
12587.576541,-191.425808,172.283227,-9533.005238
12587.579077,2718.246474,7944.171032,-12251.251712
12587.581613,1282.552914,-6565.905214,-7197.610381
12587.584150,-784.845813,5781.059402,-11064.411702
12587.586686,-1493.121302,6489.334891,-12193.823970
12587.589222,784.845813,-3847.658741,-8920.442653
12587.591758,2124.826469,1263.410333,-9839.286531
12587.594294,1780.260014,535.992262,-10049.854920
12587.596831,-2220.539373,918.843878,-10107.282662
12587.599367,-803.988394,1780.260014,-10394.421374
12587.601903,2699.103893,-2507.678085,-8843.872330
12587.604439,2067.398726,3905.086483,-10719.845248
12587.606975,-1359.123237,784.845813,-10011.569758
12587.609511,363.709035,-957.129040,-9284.151688
12587.612048,133.998066,4613.361973,-11026.126541
12587.614584,2526.820666,-2373.680019,-9150.153622
12587.617120,-3062.812928,382.851616,-9896.714274
12587.619656,-1990.828403,6891.329088,-12232.109131
12587.622192,229.710970,-6527.620053,-8212.167163
12587.624734,-344.566454,-765.703232,-9609.575562
12587.627276,-784.845813,3177.668413,-11600.403965
12587.629818,210.568389,-7542.176835,-7657.032320
12587.632360,-1282.552914,5723.631659,-11389.835576
12587.634902,114.855485,-689.132909,-10068.997501
12587.637444,-1397.408398,-3311.666478,-8595.018779
12587.639986,-631.705166,3866.801322,-11102.696864
12587.642528,-803.988394,-3598.805190,-9111.868461
12587.645070,-267.996131,1722.832272,-10413.563955
12587.647612,-153.140646,-1091.127106,-9667.003304
12587.650154,-1895.115499,-2660.818731,-8997.012976
12587.652696,-95.712904,2297.109696,-10796.415571
12587.655238,248.853550,-2354.537438,-9188.438784
12587.657780,-114.855485,-1129.412267,-9494.720077
12587.660322,-1378.265818,2928.814862,-11102.696864
12587.662864,325.423874,-5072.783912,-8518.448456
12587.665406,-4077.369710,2335.394858,-10413.563955
12587.667948,1493.121302,4211.367776,-11006.983960
12587.670490,842.273555,-5991.627790,-7771.887805
12587.673032,1014.556782,9915.856854,-12557.533005
12587.675574,-363.709035,-2029.113565,-9054.440718
12587.678116,-918.843878,-1895.115499,-8709.874264
12587.680658,-1225.125171,6317.051664,-12059.825904
12587.683200,76.570323,-363.709035,-10145.567824
12587.685742,478.564520,-1205.982590,-9303.294269
12587.688284,1875.972918,1378.265818,-10145.567824
12587.690826,-1186.840010,-803.988394,-9494.720077
12587.693368,-2890.529701,3311.666478,-10968.698798
12587.695910,612.562586,-1378.265818,-9322.436850
12587.698452,2526.820666,937.986459,-9609.575562
12587.700994,516.849682,3311.666478,-10834.700733
12587.703536,689.132909,-1856.830338,-8824.729749
12587.706078,-2852.244539,2086.541307,-10451.849117
12587.708620,1378.265818,3579.662610,-11121.839445
12587.711162,248.853550,-6202.196179,-7810.172966
12587.713704,-3637.090352,5666.203917,-9628.718142
12587.716246,-2584.248408,4670.789715,-11791.829773
12587.718788,-2584.248408,-9226.723946,-7235.895542
12587.721330,-19.142581,3905.086483,-11332.407834
12587.723872,1052.841944,-191.425808,-10183.852986
12587.726418,-1282.552914,-3828.516160,-8441.878133
12587.728965,-2660.818731,5321.637462,-11715.259450
12587.731512,-1397.408398,-3503.092286,-9016.155557
12587.734058,-1052.841944,421.136778,-9858.429112
12587.736605,555.134843,-210.568389,-9992.427178
12587.739151,-708.275490,-1512.263883,-9533.005238
12587.741698,-2163.111630,1531.406464,-10604.989763
12587.744245,-1722.832272,-4460.221326,-8958.727814
12587.746791,-861.416136,-1627.119368,-9437.292334
12587.749338,-1741.974853,2622.533570,-10987.841379
12587.751884,727.418070,-2679.961312,-9054.440718
12587.754431,-2928.814862,-1856.830338,-9533.005238
12587.756978,-344.566454,5130.211654,-11753.544611
12587.759524,2852.244539,-5876.772306,-7523.034254
12587.762071,-555.134843,4594.219392,-10719.845248
12587.764617,2813.959378,3579.662610,-11064.411702
12587.767164,880.558717,-5187.639397,-7618.747158
12587.769711,-689.132909,8250.452325,-12212.966550
12587.772257,-823.130974,-2986.242605,-9245.866526
12587.774804,803.988394,-1875.972918,-8863.014910
12587.777351,2565.105827,3062.812928,-10260.423309
12587.779897,727.418070,-1014.556782,-9609.575562
12587.782444,-2565.105827,2411.965181,-10700.702667
12587.784990,-38.285162,172.283227,-9877.571693
12587.787537,2526.820666,-1780.260014,-8997.012976
12587.790084,1148.554848,5130.211654,-11236.694930
12587.792630,-306.281293,-1952.543242,-9131.011042
12587.795177,708.275490,1167.697429,-9877.571693
12587.797723,-1493.121302,4555.934230,-11332.407834
12587.800270,1588.834206,-3330.809059,-8671.589102
12587.802817,-2048.256146,459.421939,-9801.001370
12587.805363,-133.998066,5149.354235,-11676.974288
12587.807910,478.564520,-8977.870395,-7331.608446
12587.810456,-172.283227,-4479.363907,-8269.594906
12587.813003,-593.420005,5245.067139,-12021.540742
12587.815550,-57.427742,-5608.776174,-8422.735552
12587.818096,-1588.834206,1703.689691,-10241.280728
12587.820643,-1129.412267,2679.961312,-11102.696864
12587.823189,-1761.117434,-3694.518094,-8671.589102
12587.825736,-497.707101,2124.826469,-10298.708470
12587.828287,-516.849682,-1741.974853,-9667.003304
12587.830837,-1244.267752,1091.127106,-10451.849117
12587.833388,-1225.125171,-1091.127106,-9801.001370
12587.835938,-1359.123237,-3617.947771,-9111.868461
12587.838489,-2048.256146,3330.809059,-11179.267187
12587.841039,-880.558717,-3464.807125,-10183.852986
12587.843590,899.701298,-2852.244539,-8824.729749
12587.846141,-2277.967115,1071.984525,-10547.562021
12587.848691,306.281293,1512.263883,-10624.132344
12587.851242,1741.974853,-4843.072942,-7905.885870
12587.853792,-612.562586,6604.190376,-11619.546546
12587.856343,2794.816797,-95.712904,-9820.143950
12587.858893,535.992262,-2526.820666,-8346.165229
12587.861444,-1225.125171,7925.028451,-12289.536874
12587.863995,-1186.840010,-4307.080680,-8633.303941
12587.866545,248.853550,-535.992262,-9188.438784
12587.869096,823.130974,2622.533570,-11006.983960
