#time,accel_x,accel_y,accel_z
22933.613935,-38.285162,421.136778,9590.432981
22933.616471,-95.712904,401.994197,9590.432981
22933.619006,-19.142581,382.851616,9475.577496
22933.621542,-57.427742,363.709035,9552.147819
22933.624078,-287.138712,-19.142581,9475.577496
22933.626617,-593.420005,76.570323,9494.720077
22933.629155,-248.853550,631.705166,9590.432981
22933.631694,114.855485,-382.851616,9360.722011
22933.634233,-38.285162,76.570323,9571.290400
22933.636771,-401.994197,708.275490,9801.001370
22933.639310,-382.851616,-1110.269686,9418.149754
22933.641848,-918.843878,-1378.265818,9533.005238
22933.644387,-172.283227,1646.261949,9934.999435
22933.646925,325.423874,153.140646,9437.292334
22933.649464,172.283227,-1684.547110,8939.585234
22933.652003,-1167.697429,3713.660675,10528.419440
22933.654541,-1454.836141,-689.132909,9533.005238
22933.657080,1148.554848,-1320.838075,8824.729749
22933.659618,-306.281293,1454.836141,10030.712339
22933.662157,1627.119368,1990.828403,9858.429112
22933.664696,976.271621,-1186.840010,8805.587168
22933.667234,-1799.402595,1933.400661,9934.999435
22933.669773,-363.709035,1378.265818,9820.143950
22933.672311,593.420005,-2009.970984,8767.302006
22933.674850,708.275490,57.427742,9245.866526
22933.677389,-229.710970,3924.229064,10470.991698
22933.679927,880.558717,-1129.412267,8997.012976
22933.682466,-153.140646,-842.273555,8977.870395
22933.685004,-899.701298,3464.807125,10413.563955
22933.687543,995.414202,-784.845813,9150.153622
22933.690082,995.414202,-440.279358,9169.296203
22933.692620,-133.998066,1569.691626,9973.284597
22933.695159,-133.998066,1033.699363,9724.431046
22933.697697,114.855485,229.710970,9379.864592
22933.700236,172.283227,-57.427742,9284.151688
22933.702775,363.709035,1588.834206,9934.999435
22933.705313,593.420005,765.703232,9609.575562
22933.707852,459.421939,76.570323,9207.581365
22933.710390,-38.285162,555.134843,9456.434915
22933.712929,-459.421939,1971.685822,9839.286531
22933.715468,1091.127106,287.138712,9303.294269
22933.718006,57.427742,-325.423874,9399.007173
22933.720545,-440.279358,1569.691626,10241.280728
22933.723083,976.271621,-191.425808,9207.581365
22933.725622,-95.712904,-918.843878,9016.155557
22933.728163,382.851616,4613.361973,10317.851051
22933.730704,-172.283227,-1493.121302,9016.155557
22933.733245,937.986459,1741.974853,9743.573627
22933.735786,-899.701298,-191.425808,9609.575562
22933.738327,-2392.822600,2718.246474,10317.851051
22933.740868,2545.963246,325.423874,9399.007173
22933.743408,-631.705166,-6795.616184,7791.030386
22933.745949,-1512.263883,12940.384621,13189.238171
22933.748490,2009.970984,-9647.860723,6967.899411
22933.751031,-478.564520,-4804.787781,8039.883936
22933.753572,-2067.398726,17802.600144,14797.214958
22933.756113,1761.117434,-15467.205286,5034.498750
22933.758654,-325.423874,1071.984525,9494.720077
22933.761195,-3120.240670,14088.939469,13878.371080
22933.763736,3981.656806,-16137.195614,5053.641331
22933.766277,-1052.841944,2297.109696,9743.573627
22933.768818,-1761.117434,12308.679454,13974.083984
22933.771359,669.990328,-3196.810994,9035.298138
22933.773899,784.845813,-10643.274925,6125.625856
22933.776440,-2469.392923,13667.802691,13265.808494
22933.778981,1301.695494,-3694.518094,8767.302006
22933.781522,1129.412267,-7331.608446,7178.467800
22933.784063,-2545.963246,10222.138147,12557.533005
22933.786604,153.140646,-3445.664544,8901.300072
22933.789145,478.564520,-4153.940034,8001.598774
22933.791686,-248.853550,5321.637462,10892.128475
22933.794227,1014.556782,-1186.840010,9418.149754
22933.796768,-363.709035,-1799.402595,8977.870395
22933.799309,-1359.123237,3311.666478,10547.562021
22933.801850,-995.414202,1607.976787,10126.425243
22933.804391,-38.285162,-3235.096155,8652.446522
22933.806931,382.851616,899.701298,9762.716208
22933.809472,57.427742,1531.406464,9973.284597
22933.812013,210.568389,-1493.121302,9073.583299
22933.814554,-1531.406464,-114.855485,9686.145885
22933.817095,-248.853550,1895.115499,10011.569758
22933.819636,363.709035,-2029.113565,8901.300072
22933.822177,401.994197,363.709035,9609.575562
22933.824718,-401.994197,2737.389054,10375.278794
22933.827259,-842.273555,-3005.385186,9035.298138
22933.829802,-784.845813,1014.556782,9801.001370
22933.832344,-306.281293,57.427742,9877.571693
22933.834887,-1205.982590,-1186.840010,9360.722011
22933.837430,1895.115499,2584.248408,10145.567824
22933.839972,114.855485,-4919.643266,8269.594906
22933.842515,-2048.256146,8173.882002,11619.546546
22933.845058,1799.402595,-918.843878,9016.155557
22933.847601,114.855485,-9150.153622,6642.475538
22933.850143,-1052.841944,17400.605947,14222.937534
22933.852686,1148.554848,-9647.860723,6987.041992
22933.855229,1378.265818,-3349.951640,7905.885870
22933.857772,-3847.658741,14950.355605,13859.228499
22933.860314,3981.656806,-9667.003304,6853.043926
22933.862857,382.851616,-1359.123237,8422.735552
22933.865400,-2928.814862,10834.700733,12423.534939
22933.867942,1225.125171,1225.125171,10164.710405
22933.870485,1569.691626,-9590.432981,6317.051664
22933.873028,-1512.263883,12078.968485,12442.677520
22933.875571,880.558717,-1205.982590,9284.151688
22933.878113,1071.984525,-7082.754896,7178.467800
22933.880656,-1550.549045,10317.851051,12289.536874
22933.883199,1052.841944,-2890.529701,8958.727814
22933.885742,746.560651,-3905.086483,7963.313613
22933.888284,-1091.127106,7369.893608,11389.835576
22933.890827,1014.556782,-1473.978722,9226.723946
22933.893370,229.710970,-2871.387120,8365.307810
22933.895913,-1091.127106,4421.936165,10777.272990
22933.898455,38.285162,4230.510357,10777.272990
22933.900998,1569.691626,-2354.537438,8518.448456
22933.903541,267.996131,478.564520,9284.151688
22933.906083,-1531.406464,4498.506488,10777.272990
22933.908626,957.129040,-2086.541307,8786.444587
22933.911169,650.847747,133.998066,9284.151688
22933.913712,-535.992262,3809.373579,10681.560086
22933.916254,784.845813,-2182.254211,8843.872330
22933.918797,-306.281293,842.273555,9513.862658
22933.921340,-267.996131,2871.387120,10298.708470
22933.923883,535.992262,-1071.984525,8824.729749
22933.926425,497.707101,861.416136,9533.005238
22933.928968,-1129.412267,1378.265818,10011.569758
22933.931497,1665.404530,2565.105827,9896.714274
22933.934024,-57.427742,-5379.065205,8154.739421
22933.936552,-1952.543242,8327.022648,11734.402030
22933.939079,2220.539373,-4728.217458,8231.309744
22933.941607,-1512.263883,-5647.061336,7982.456194
22933.944134,-1665.404530,16252.051099,14242.080115
22933.946661,2048.256146,-16156.338195,5034.498750
22933.949189,344.566454,3464.807125,10030.712339
22933.951716,-3426.521963,12002.398162,13380.663979
22933.954244,3503.092286,-15811.771741,4823.930362
22933.956771,-2526.820666,5934.200048,11045.269122
22933.959298,-2182.254211,9265.009107,12806.386555
22933.961826,1856.830338,-6470.192310,7829.315547
22933.964353,-76.570323,-7446.463931,7006.184573
22933.966881,-3120.240670,14222.937534,13840.085918
22933.969408,1167.697429,-8212.167163,7427.321350
22933.971935,669.990328,-4287.938099,7944.171032
22933.974463,-1780.260014,11849.257515,13036.097525
22933.976990,1397.408398,-7542.176835,7542.176835
22933.979518,-153.140646,-1607.976787,8709.874264
22933.982045,-1990.828403,7312.465866,11791.829773
22933.984572,555.134843,-4498.506488,8384.450390
22933.987100,-363.709035,-1091.127106,9054.440718
22933.989627,-937.986459,3905.086483,10566.704602
22933.992155,-287.138712,1473.978722,10088.140082
22933.994682,-95.712904,-3464.807125,8633.303941
22933.997209,-325.423874,1550.549045,10011.569758
22933.999737,-153.140646,1799.402595,10145.567824
22934.002264,191.425808,-3311.666478,8595.018779
22934.004792,-1014.556782,957.129040,10068.997501
22934.007319,-325.423874,2086.541307,10145.567824
22934.009846,516.849682,-2986.242605,8652.446522
22934.012374,-267.996131,1052.841944,9858.429112
22934.014901,-784.845813,3311.666478,10470.991698
22934.017429,-535.992262,-3713.660675,8633.303941
22934.019956,-287.138712,1129.412267,9743.573627
22934.022483,-937.986459,267.996131,9915.856854
22934.025011,-1052.841944,76.570323,9609.575562
22934.027538,2277.967115,248.853550,9322.436850
22934.030066,-1512.263883,-3675.375514,8671.589102
22934.032597,-1416.550979,10336.993632,12232.109131
22934.035128,2488.535504,-6833.901346,7427.321350
22934.037659,-842.273555,-2545.963246,8365.307810
22934.040191,-861.416136,16424.334326,14031.511726
22934.042722,2622.533570,-15333.207221,5168.496816
22934.045253,133.998066,3656.232933,10011.569758
22934.047784,-3560.520029,12136.396227,13246.665914
22934.050315,4058.227130,-13744.373014,5551.348432
22934.052847,-1454.836141,5895.914886,10585.847182
22934.055378,-2756.531635,13993.226565,13284.951075
22934.057909,1684.547110,-5455.635528,8327.022648
22934.060440,344.566454,-4728.217458,7714.460062
22934.062972,-1071.984525,12519.247843,12806.386555
22934.065503,1952.543242,-6221.338760,7848.458128
22934.068034,382.851616,-1971.685822,8575.876198
22934.070565,-1722.832272,8863.014910,12040.683323
22934.073096,1665.404530,-5379.065205,8020.741355
22934.075628,-76.570323,-650.847747,8977.870395
22934.078159,57.427742,5800.201982,11102.696864
22934.080690,1359.123237,-2354.537438,8901.300072
22934.083221,-287.138712,-708.275490,9054.440718
22934.085752,-669.990328,4651.647134,10719.845248
22934.088284,95.712904,1990.828403,10126.425243
22934.090815,669.990328,-3081.955509,8499.305875
22934.093346,76.570323,3885.943902,10375.278794
22934.095877,650.847747,2277.967115,9877.571693
22934.098409,38.285162,-2947.957443,8537.591037
22934.100940,-1282.552914,3273.381317,10451.849117
22934.103471,1110.269686,574.277424,9533.005238
22934.106002,421.136778,-2871.387120,8575.876198
22934.108533,421.136778,5321.637462,10872.985894
22934.111065,-287.138712,-669.990328,9284.151688
22934.113596,574.277424,-669.990328,8920.442653
22934.116127,-1856.830338,2660.818731,10260.423309
22934.118658,-19.142581,5915.057467,10892.128475
22934.121190,2660.818731,-6431.907149,7676.174901
22934.123721,-2297.109696,2354.537438,10317.851051
22934.126252,784.845813,7465.606512,11523.833642
22934.128783,516.849682,-16022.340130,5111.069074
22934.131314,-3005.385186,13284.951075,13361.521398
22934.133849,191.425808,229.710970,10049.854920
22934.136383,3043.670347,-13954.941403,5149.354235
22934.138917,-4230.510357,16003.197549,14222.937534
22934.141452,669.990328,-3330.809059,8843.872330
22934.143986,1435.693560,-10758.130410,6163.911018
22934.146521,-4058.227130,15352.349802,14088.939469
22934.149055,1799.402595,-6585.047795,7982.456194
22934.151589,2048.256146,-14548.361408,5379.065205
22934.154124,-2641.676150,7982.456194,11715.259450
22934.156658,-1244.267752,4383.651003,11198.409768
22934.159192,1780.260014,-11408.978157,6049.055533
22934.161727,-1378.265818,8518.448456,11810.972354
22934.164261,382.851616,1359.123237,10241.280728
22934.166795,574.277424,-7446.463931,7427.321350
22934.169330,-1703.689691,6374.479406,11121.839445
22934.171864,172.283227,-114.855485,9686.145885
22934.174398,-172.283227,-3579.662610,8365.307810
22934.176933,-765.703232,3905.086483,10566.704602
22934.179467,325.423874,-1205.982590,9437.292334
22934.182001,19.142581,-3024.527766,8824.729749
22934.184536,-631.705166,1167.697429,9896.714274
22934.187070,-861.416136,440.279358,9992.427178
22934.189604,937.986459,-1684.547110,8920.442653
22934.192139,-0.000000,1014.556782,9647.860723
22934.194673,-1186.840010,765.703232,9934.999435
22934.197207,133.998066,38.285162,9513.862658
22934.199742,-746.560651,-1550.549045,9131.011042
22934.202276,325.423874,918.843878,9801.001370
22934.204810,-842.273555,-248.853550,9628.718142
22934.207345,1569.691626,689.132909,9686.145885
22934.209879,-1339.980656,-3445.664544,8901.300072
22934.212413,-1071.984525,6546.762634,11083.554283
22934.214948,2009.970984,1914.258080,9858.429112
22934.217482,-363.709035,-9360.722011,6929.614250
22934.220016,-708.275490,15907.484645,13572.089787
22934.222551,2143.969050,-7331.608446,7331.608446
22934.225085,401.994197,-4460.221326,7791.030386
22934.227619,-3177.668413,15543.775610,14146.367211
22934.230154,3426.521963,-10681.560086,6451.049730
22934.232688,421.136778,-1588.834206,8499.305875
22934.235225,-2201.396792,13112.667848,13189.238171
22934.237763,3617.947771,-10317.851051,6489.334891
22934.240300,-1148.554848,1684.547110,9456.434915
22934.242838,-1473.978722,9399.007173,12327.822035
22934.245375,1378.265818,-8671.589102,9245.866526
22934.247912,1512.263883,-5187.639397,7561.319416
22934.250450,-1320.838075,8346.165229,11657.831707
22934.252987,478.564520,-2029.113565,9054.440718
22934.255524,114.855485,-2488.535504,8537.591037
22934.258062,-669.990328,5034.498750,10796.415571
22934.260599,1435.693560,-1454.836141,9226.723946
22934.263136,95.712904,-1129.412267,9111.868461
22934.265674,-344.566454,3445.664544,10490.134278
22934.268211,421.136778,-612.562586,9073.583299
22934.270748,-382.851616,-459.421939,9111.868461
22934.273286,-57.427742,3809.373579,10451.849117
22934.275823,1225.125171,95.712904,9379.864592
22934.278360,57.427742,-1665.404530,8805.587168
22934.280898,-1091.127106,1569.691626,10049.854920
22934.283435,535.992262,1397.408398,9896.714274
22934.285972,191.425808,-1627.119368,8901.300072
22934.288510,210.568389,3579.662610,10298.708470
22934.291047,153.140646,497.707101,9456.434915
22934.293584,440.279358,-1493.121302,8958.727814
22934.296122,-1741.974853,3426.521963,10394.421374
22934.298659,1665.404530,784.845813,9437.292334
22934.301196,-1205.982590,-3254.238736,8614.161360
22934.303734,440.279358,8939.585234,11830.114934
22934.306271,1741.974853,-10145.567824,6853.043926
22934.308808,-3081.955509,3617.947771,6910.471669
22934.311346,-2431.107762,16807.185942,14414.363342
22934.313883,1665.404530,-12480.962682,6183.053598
22934.316420,1952.543242,-2067.398726,8403.592971
22934.318958,-3943.371645,14797.214958,14127.224630
22934.321495,2679.961312,-13323.236237,5953.342629
22934.324032,-1454.836141,803.988394,9437.292334
22934.326570,-3101.098090,11944.970419,13361.521398
22934.329107,3062.812928,-13706.087853,5761.916821
22934.331644,-631.705166,3847.658741,10145.567824
22934.334182,-1244.267752,8250.452325,12404.392358
22934.336721,1148.554848,-12442.677520,6125.625856
22934.339261,-1761.117434,5379.065205,10758.130410
22934.341801,-1952.543242,9322.436850,12232.109131
22934.344341,1205.982590,-4039.084549,8709.874264
22934.346880,153.140646,-2775.674216,8480.163294
22934.349420,-1359.123237,5570.491013,11102.696864
22934.351960,344.566454,-1052.841944,9188.438784
22934.354500,-459.421939,-2928.814862,8575.876198
22934.357039,-995.414202,3388.236802,10604.989763
22934.359579,-19.142581,-172.283227,9801.001370
22934.362119,153.140646,-3215.953574,8595.018779
22934.364658,-1167.697429,1780.260014,10241.280728
22934.367198,57.427742,-229.710970,9552.147819
22934.369738,631.705166,-1722.832272,8920.442653
22934.372278,-1052.841944,2297.109696,9647.860723
22934.374817,-325.423874,3349.951640,10394.421374
22934.377357,-382.851616,-3713.660675,8518.448456
22934.379897,172.283227,248.853550,9628.718142
22934.382436,-1110.269686,1837.687757,10298.708470
22934.384976,1837.687757,-937.986459,9035.298138
22934.387516,-1473.978722,-3158.525832,8939.585234
22934.390056,-669.990328,7255.038123,11485.548480
22934.392595,2526.820666,-7121.040058,7503.891674
22934.395135,-1703.689691,2679.961312,10049.854920
22934.397675,995.414202,9533.005238,11983.255581
22934.400215,2048.256146,-14682.359474,5149.354235
22934.402754,-1435.693560,13323.236237,12882.956878
22934.405294,-3273.381317,14165.509792,13801.800757
22934.407834,3388.236802,-11600.403965,6163.911018
22934.410373,76.570323,440.279358,9092.725880
22934.412913,-1741.974853,11523.833642,12902.099459
22934.415453,3847.658741,-10528.419440,6393.621987
22934.417993,-1301.695494,3522.234867,10011.569758
22934.420532,-1684.547110,8193.024582,12117.253646
22934.423072,1895.115499,-9035.298138,6872.186507
22934.425612,248.853550,4192.225195,10164.710405
22934.428151,19.142581,5111.069074,11102.696864
22934.430691,1761.117434,-5819.344563,7791.030386
22934.433231,-689.132909,2928.814862,9934.999435
22934.435771,-593.420005,2163.111630,10183.852986
22934.438312,631.705166,-401.994197,9513.862658
22934.440854,612.562586,-287.138712,9303.294269
22934.443396,306.281293,1550.549045,9858.429112
22934.445937,287.138712,1033.699363,9628.718142
22934.448479,-19.142581,306.281293,9207.581365
22934.451021,210.568389,2067.398726,9762.716208
22934.453562,-287.138712,1263.410333,9839.286531
22934.456104,-57.427742,-937.986459,9303.294269
22934.458646,689.132909,1263.410333,9724.431046
22934.461187,-133.998066,1205.982590,9705.288466
22934.463729,459.421939,153.140646,9418.149754
22934.466271,401.994197,1244.267752,9571.290400
22934.468812,306.281293,727.418070,9590.432981
22934.471354,-1129.412267,325.423874,9590.432981
22934.473896,1665.404530,2488.535504,9973.284597
22934.476437,-631.705166,-3273.381317,8690.731683
22934.478979,-363.709035,7140.182638,11198.409768
22934.481520,1282.552914,-6833.901346,7561.319416
22934.484062,-2737.389054,-306.281293,9609.575562
22934.486604,-650.847747,10183.852986,12729.816232
22934.489145,1761.117434,-16098.910453,5034.498750
22934.491687,-421.136778,9513.862658,11868.400096
22934.494229,-2124.826469,5264.209720,11332.407834
22934.496770,2794.816797,-13935.798822,5398.207786
22934.499312,-2909.672282,9762.716208,8422.735552
22934.501854,-3177.668413,11562.118803,13170.095590
22934.504395,2163.111630,-9896.714274,7044.469734
22934.506937,-57.427742,-172.283227,9035.298138
22934.509479,-1493.121302,8805.587168,12193.823970
22934.512020,669.990328,-8843.872330,7159.325219
22934.514562,-1148.554848,1282.552914,9686.145885
22934.517104,-861.416136,5532.205851,11332.407834
22934.519645,1397.408398,-5781.059402,7944.171032
22934.522187,-669.990328,1320.838075,9724.431046
22934.524729,-708.275490,4173.082614,10834.700733
22934.527270,229.710970,-3751.945837,8422.735552
22934.529812,-957.129040,-287.138712,9245.866526
22934.532354,-1110.269686,3120.240670,10643.274925
22934.534895,-57.427742,133.998066,10049.854920
22934.537437,306.281293,-4575.076811,8499.305875
22934.539981,-574.277424,3617.947771,10356.136213
22934.542524,-172.283227,746.560651,9628.718142
22934.545068,-382.851616,-3751.945837,8595.018779
22934.547612,-497.707101,4441.078746,10758.130410
22934.550155,-382.851616,-1493.121302,9303.294269
22934.552699,478.564520,-2622.533570,8863.014910
22934.555243,-1607.976787,3732.803256,10681.560086
22934.557786,1569.691626,-1148.554848,9131.011042
22934.560330,-1091.127106,-3943.371645,8327.022648
22934.562874,-248.853550,7791.030386,11428.120738
22934.565417,2239.681954,-1091.127106,9265.009107
22934.567961,-803.988394,-5685.346498,8001.598774
22934.570505,95.712904,14299.507858,13016.954944
22934.573048,2392.822600,-11696.116869,6049.055533
22934.575592,-516.849682,4077.369710,10088.140082
22934.578136,-2890.529701,10719.845248,12844.671717
22934.580679,4039.084549,-13591.232368,5474.778109
22934.583223,-1129.412267,5876.772306,10719.845248
22934.585767,-995.414202,8078.169098,12078.968485
22934.588310,4019.941968,-11964.113000,5704.489078
22934.590854,-1665.404530,7542.176835,11064.411702
22934.593398,-842.273555,6049.055533,11504.691061
22934.595941,1780.260014,842.273555,7810.172966
22934.598485,842.273555,-2258.824534,8365.307810
22934.601029,-631.705166,9801.001370,12346.964616
22934.603572,1550.549045,-5934.200048,7867.600709
22934.606116,-248.853550,-382.851616,8843.872330
22934.608660,-421.136778,5551.348432,10968.698798
22934.611203,1110.269686,-3273.381317,8690.731683
22934.613747,267.996131,421.136778,9533.005238
22934.616291,287.138712,3292.523898,10394.421374
22934.618834,1091.127106,-1244.267752,8863.014910
22934.621378,-38.285162,1780.260014,9513.862658
22934.623922,-918.843878,2086.541307,10049.854920
22934.626465,-306.281293,-1110.269686,9360.722011
22934.629009,1665.404530,363.709035,9341.579430
22934.631553,325.423874,325.423874,9437.292334
22934.634096,267.996131,1627.119368,9820.143950
22934.636640,-957.129040,1416.550979,9609.575562
22934.639184,574.277424,-497.707101,9073.583299
22934.641729,-823.130974,1052.841944,9724.431046
22934.644274,1684.547110,2890.529701,10222.138147
22934.646819,-535.992262,-3426.521963,8786.444587
22934.649364,325.423874,6259.623922,10930.413637
22934.651909,210.568389,-6814.758765,7561.319416
22934.654454,-2890.529701,2890.529701,10356.136213
22934.656999,267.996131,5321.637462,11236.694930
22934.659545,1665.404530,-14337.793019,6508.477472
22934.662090,1454.836141,-19.142581,9207.581365
22934.664635,-3656.232933,11408.978157,13112.667848
22934.667180,1933.400661,-11810.972354,6163.911018
22934.669725,-1129.412267,2124.826469,9686.145885
22934.672270,-2239.681954,8767.302006,12538.390424
22934.674815,2507.678085,-11140.982026,6642.475538
22934.677360,-612.562586,2871.387120,10107.282662
22934.679905,-689.132909,6374.479406,11428.120738
22934.682451,535.992262,-9035.298138,6929.614250
22934.684996,-1550.549045,4230.510357,10451.849117
22934.687541,-248.853550,2813.959378,10528.419440
22934.690086,1531.406464,-5953.342629,7771.887805
22934.692631,325.423874,-2163.111630,8671.589102
22934.695176,-976.271621,3177.668413,10375.278794
22934.697721,-440.279358,-153.140646,9724.431046
22934.700266,-497.707101,-1588.834206,8997.012976
22934.702812,-823.130974,344.566454,9762.716208
22934.705357,-516.849682,133.998066,9915.856854
22934.707902,1014.556782,-957.129040,9284.151688
22934.710447,459.421939,-287.138712,9207.581365
22934.712992,-1531.406464,1263.410333,10011.569758
22934.715537,-421.136778,746.560651,9724.431046
22934.718082,-95.712904,-2373.680019,8882.157491
22934.720627,-325.423874,765.703232,9896.714274
22934.723172,-1110.269686,1569.691626,10145.567824
22934.725718,1339.980656,880.558717,9724.431046
22934.728263,-1244.267752,-4977.071008,8307.880067
22934.730808,-1301.695494,7255.038123,11294.122672
22934.733353,2373.680019,-4651.647134,8097.311678
22934.735898,-1071.984525,-363.709035,9379.864592
22934.738443,880.558717,10528.419440,12232.109131
22934.740988,1799.402595,-13610.374949,5417.350366
22934.743535,-1186.840010,10872.985894,11983.255581
22934.746081,-1952.543242,4307.080680,10930.413637
22934.748627,3866.801322,-12423.534939,5647.061336
22934.751173,-2354.537438,11217.552349,12423.534939
22934.753720,325.423874,2105.683888,10643.274925
22934.756266,3235.096155,-8403.592971,6948.756830
22934.758812,-497.707101,382.851616,8843.872330
22934.761358,-1761.117434,10088.140082,12461.820101
22934.763905,1550.549045,-7829.315547,7465.606512
22934.766451,382.851616,1378.265818,9513.862658
22934.768997,-248.853550,6393.621987,11389.835576
22934.771544,1741.974853,-5513.063270,7791.030386
22934.774090,-823.130974,2009.970984,9628.718142
22934.776636,-478.564520,4039.084549,10719.845248
22934.779182,727.418070,-3388.236802,8518.448456
22934.781729,38.285162,1531.406464,9743.573627
22934.784275,727.418070,3790.230998,10566.704602
22934.786821,842.273555,38.285162,9284.151688
22934.789367,-440.279358,-1684.547110,8729.016845
22934.791914,-1397.408398,4077.369710,10643.274925
22934.794460,1205.982590,114.855485,9475.577496
22934.797006,995.414202,-2182.254211,8748.159426
22934.799552,-248.853550,4651.647134,10681.560086
22934.802099,344.566454,421.136778,9303.294269
22934.804645,421.136778,-3292.523898,8346.165229
22934.807191,-1301.695494,5379.065205,10853.843314
22934.809738,1397.408398,-459.421939,9379.864592
22934.812284,-612.562586,-1971.685822,8939.585234
22934.814830,1339.980656,6719.045861,11236.694930
22934.817376,-421.136778,-8805.587168,7350.751027
22934.819923,-2622.533570,-1416.550979,9188.438784
22934.822469,-478.564520,9820.143950,12442.677520
22934.825015,1799.402595,-14835.500120,5455.635528
22934.827561,-57.427742,8709.874264,11830.114934
22934.830108,-2048.256146,4977.071008,11351.550414
22934.832654,2718.246474,-13974.083984,5379.065205
22934.835200,-2718.246474,9399.007173,11791.829773
22934.837746,-593.420005,2986.242605,10815.558152
22934.840293,2316.252277,-11006.983960,6470.192310
22934.842839,-1473.978722,8097.311678,11906.685258
22934.845386,-95.712904,1454.836141,10298.708470
22934.847933,650.847747,-7963.313613,6967.899411
22934.850481,-976.271621,248.853550,9399.007173
22934.853028,-382.851616,5072.783912,11102.696864
22934.855575,899.701298,-4364.508422,8403.592971
22934.858122,-248.853550,1033.699363,9762.716208
22934.860670,-267.996131,1722.832272,10107.282662
22934.863217,-689.132909,-1627.119368,9092.725880
22934.865764,-727.418070,689.132909,9609.575562
22934.868311,-287.138712,-708.275490,9513.862658
22934.870859,421.136778,363.709035,9743.573627
22934.873406,344.566454,306.281293,9686.145885
22934.875953,-1014.556782,-1684.547110,9169.296203
22934.878501,-440.279358,1971.685822,9973.284597
22934.881048,-153.140646,-516.849682,9284.151688
22934.883595,708.275490,-3139.383251,8901.300072
22934.886142,-880.558717,2603.390989,10375.278794
22934.888690,631.705166,133.998066,9571.290400
22934.891237,-803.988394,-3675.375514,8537.591037
22934.893784,210.568389,4823.930362,10662.417506
22934.896332,-861.416136,-4709.074877,8518.448456
22934.898879,-363.709035,6680.760699,11102.696864
22934.901426,2258.824534,-2488.535504,8690.731683
22934.903973,-708.275490,-3101.098090,8422.735552
22934.906521,-478.564520,13131.810429,13016.954944
22934.909068,1588.834206,-11447.263318,6106.483275
22934.911615,76.570323,2048.256146,9590.432981
22934.914163,-2584.248408,13189.238171,13131.810429
22934.916710,1301.695494,-1914.258080,9360.722011
22934.919257,2469.392923,-8231.309744,6565.905214
22934.921804,-2450.250342,11581.261384,12404.392358
22934.924352,593.420005,-1263.410333,9284.151688
22934.926899,535.992262,-6431.907149,7350.751027
22934.929446,-1263.410333,8997.012976,12021.540742
22934.931993,1473.978722,-1646.261949,9169.296203
22934.934541,842.273555,-3407.379382,8193.024582
22934.937088,38.285162,5723.631659,10758.130410
22934.939635,612.562586,-1799.402595,9111.868461
22934.942183,-76.570323,287.138712,9341.579430
22934.944730,344.566454,3005.385186,10145.567824
22934.947278,325.423874,401.994197,9533.005238
22934.949826,153.140646,-631.705166,9207.581365
22934.952374,-1167.697429,2833.101958,10126.425243
22934.954922,976.271621,229.710970,9226.723946
22934.957470,248.853550,210.568389,9265.009107
22934.960018,19.142581,2603.390989,10298.708470
22934.962566,1665.404530,-746.560651,9111.868461
22934.965114,-1033.699363,-19.142581,9303.294269
22934.967662,-363.709035,5149.354235,10700.702667
22934.970211,382.851616,-4555.934230,8250.452325
22934.972759,880.558717,3637.090352,9992.427178
22934.975307,727.418070,-382.851616,9628.718142
22934.977855,-2201.396792,401.994197,8901.300072
22934.980403,-95.712904,6948.756830,11294.122672
22934.982951,937.986459,-9743.573627,6948.756830
22934.985499,-1244.267752,3388.236802,10432.706536
22934.988047,-976.271621,7580.461997,11925.827838
22934.990595,2565.105827,-13457.234302,5474.778109
22934.993143,-2507.678085,7599.604578,11983.255581
22934.995691,-1895.115499,5340.780043,11389.835576
22934.998239,2775.674216,-11849.257515,5876.772306
22935.000787,-2641.676150,7389.036189,11466.405899
22935.003335,-229.710970,2450.250342,10758.130410
22935.005884,1933.400661,-9226.723946,6853.043926
22935.008432,-1761.117434,6661.618118,11236.694930
22935.010980,-2029.113565,7829.315547,11830.114934
22935.013528,727.418070,-5627.918755,8173.882002
22935.016076,-172.283227,-937.986459,8977.870395
22935.018624,-1014.556782,5015.356170,11026.126541
22935.021172,95.712904,-2239.681954,9111.868461
22935.023720,-689.132909,-1512.263883,9150.153622
22935.026268,-1359.123237,2354.537438,10279.565890
22935.028816,114.855485,-593.420005,9456.434915
22935.031364,478.564520,-2411.965181,8786.444587
22935.033912,-823.130974,2526.820666,10470.991698
22935.036460,-612.562586,-727.418070,9552.147819
22935.039008,172.283227,-1435.693560,8843.872330
22935.041556,-1531.406464,2335.394858,9724.431046
22935.044105,382.851616,1933.400661,10145.567824
22935.046653,191.425808,-4479.363907,8518.448456
22935.049185,38.285162,4326.223261,10566.704602
22935.051717,-1397.408398,-2163.111630,9284.151688
22935.054249,-823.130974,1339.980656,9686.145885
22935.056781,2603.390989,-535.992262,9169.296203
22935.059313,-1359.123237,-1665.404530,9054.440718
22935.061845,995.414202,9475.577496,11676.974288
22935.064377,1780.260014,-10968.698798,6355.336826
22935.066909,-842.273555,7446.463931,11351.550414
22935.069441,-2220.539373,6967.899411,11562.118803
22935.071973,3809.373579,-11925.827838,5532.205851
22935.074505,2009.970984,-5359.922624,7580.461997
22935.077037,-2928.814862,12882.956878,13361.521398
22935.079569,2967.100024,-5819.344563,7810.172966
22935.082101,555.134843,-3062.812928,7867.600709
22935.084633,-2067.398726,11026.126541,12595.818166
22935.087165,1569.691626,-4862.215523,8193.024582
22935.089697,382.851616,-3043.670347,8288.737486
22935.092230,-267.996131,8020.741355,11715.259450
22935.094762,1301.695494,-2871.387120,8805.587168
22935.097294,382.851616,-1588.834206,8671.589102
22935.099826,-191.425808,4268.795518,10566.704602
22935.102358,746.560651,-19.142581,9418.149754
22935.104890,555.134843,-918.843878,8920.442653
22935.107422,57.427742,899.701298,9667.003304
22935.109954,76.570323,2431.107762,10068.997501
22935.112486,918.843878,210.568389,9169.296203
22935.115018,-0.000000,287.138712,9341.579430
22935.117550,-555.134843,2967.100024,10413.563955
22935.120082,1071.984525,95.712904,9265.009107
22935.122614,382.851616,-1971.685822,8824.729749
22935.125146,-57.427742,4785.645200,10566.704602
22935.127678,459.421939,-1818.545176,9016.155557
22935.130210,95.712904,1282.552914,9513.862658
22935.132742,1091.127106,1014.556782,9686.145885
22935.135274,-2545.963246,-1952.543242,9092.725880
22935.137806,-2354.537438,8288.737486,11983.255581
22935.140338,1607.976787,-4766.502619,8441.878133
22935.142871,153.140646,-7446.463931,7331.608446
22935.145403,-1990.828403,15677.773675,14165.509792
22935.147935,1263.410333,-10509.276859,6719.045861
22935.150470,421.136778,-3905.086483,8288.737486
22935.153005,-3617.947771,13667.802691,13610.374949
22935.155540,2756.531635,-9896.714274,6680.760699
22935.158075,-363.709035,-2699.103893,8403.592971
22935.160610,-2220.539373,10585.847182,12959.527202
22935.163145,1722.832272,-7676.174901,7446.463931
22935.165680,-401.994197,-1512.263883,8824.729749
22935.168216,-2124.826469,8001.598774,12078.968485
22935.170751,153.140646,976.271621,10164.710405
22935.173286,459.421939,-4613.361973,7982.456194
22935.175821,-440.279358,3330.809059,10222.138147
22935.178356,-287.138712,440.279358,9896.714274
22935.180891,-38.285162,-1952.543242,9131.011042
22935.183426,-133.998066,516.849682,9590.432981
22935.185961,-382.851616,363.709035,9762.716208
22935.188496,-421.136778,-574.277424,9533.005238
22935.191032,-114.855485,-1378.265818,9399.007173
22935.193567,-478.564520,1684.547110,9954.142016
22935.196102,-784.845813,210.568389,9552.147819
22935.198637,1052.841944,-2526.820666,8805.587168
22935.201172,-325.423874,-2718.246474,8977.870395
22935.203707,-191.425808,5091.926493,10987.841379
22935.206242,-612.562586,-4268.795518,8556.733618
22935.208777,-708.275490,2545.963246,9915.856854
22935.211312,1952.543242,0.000000,9379.864592
22935.213848,-650.847747,-2277.967115,8939.585234
22935.216383,1301.695494,8709.874264,11485.548480
22935.218918,1320.838075,-10011.569758,6661.618118
22935.221453,-669.990328,7905.885870,11408.978157
22935.223988,-1914.258080,5245.067139,11102.696864
22935.226523,3522.234867,-10681.560086,6049.055533
22935.229058,-1473.978722,8958.727814,11676.974288
22935.231593,-2679.961312,3847.658741,13055.240106
22935.234128,3177.668413,-6776.473603,7523.034254
22935.236664,287.138712,-1895.115499,8269.594906
22935.239199,-1856.830338,11160.124606,12748.958813
22935.241734,1378.265818,-5493.920690,7963.313613
22935.244269,287.138712,-1761.117434,8461.020714
22935.246804,-401.994197,7408.178770,11523.833642
22935.249339,1339.980656,-3139.383251,8824.729749
22935.251877,114.855485,-1186.840010,8863.014910
22935.254415,267.996131,4153.940034,10719.845248
22935.256952,440.279358,-861.416136,9226.723946
22935.259490,57.427742,95.712904,9303.294269
22935.262028,-248.853550,2297.109696,10068.997501
22935.264565,765.703232,1627.119368,9667.003304
22935.267103,114.855485,363.709035,9322.436850
22935.269641,-19.142581,1014.556782,9705.288466
22935.272179,861.416136,803.988394,9533.005238
22935.274716,-708.275490,344.566454,9513.862658
22935.277254,593.420005,2641.676150,10049.854920
22935.279792,19.142581,-2794.816797,8748.159426
22935.282329,861.416136,4153.940034,10145.567824
22935.284867,248.853550,-2335.394858,8977.870395
22935.287405,-1875.972918,3120.240670,10317.851051
22935.289943,1512.263883,-38.285162,9475.577496
22935.292480,-1646.261949,-6853.043926,7944.171032
22935.295018,-1607.976787,12576.675586,11849.257515
22935.297556,-631.705166,2163.111630,10413.563955
22935.300093,2660.818731,-12136.396227,5742.774240
22935.302631,-3560.520029,11140.982026,12978.669782
22935.305169,-899.701298,363.709035,10126.425243
22935.307706,2660.818731,-10068.997501,6317.051664
22935.310244,-3158.525832,10222.138147,12423.534939
22935.312782,57.427742,-842.273555,9801.001370
22935.315320,1359.123237,-8958.727814,6776.473603
22935.317857,-1684.547110,7829.315547,11753.544611
22935.320395,95.712904,-95.712904,9820.143950
22935.322933,727.418070,-5838.487144,7657.032320
22935.325470,-1301.695494,4268.795518,10585.847182
22935.328008,-1110.269686,5513.063270,11179.267187
22935.330546,-191.425808,-2201.396792,8997.012976
22935.333084,-229.710970,-2909.672282,8690.731683
22935.335621,-1014.556782,4345.365842,10987.841379
22935.338159,19.142581,-1091.127106,9399.007173
22935.340697,-38.285162,-4096.512291,8461.020714
22935.343234,-612.562586,3924.229064,10738.987829
22935.345772,19.142581,-421.136778,9494.720077
22935.348310,-689.132909,-3369.094221,8729.016845
22935.350848,-746.560651,4900.500685,10815.558152
22935.353371,-172.283227,-3005.385186,8958.727814
22935.355894,172.283227,325.423874,9552.147819
22935.358417,612.562586,440.279358,9896.714274
22935.360941,-1933.400661,-401.994197,9590.432981
22935.363464,1512.263883,4555.934230,10279.565890
22935.365987,784.845813,-7925.028451,7255.038123
22935.368510,-1684.547110,8977.870395,11906.685258
22935.371034,631.705166,3235.096155,10413.563955
22935.373557,2048.256146,-11255.837510,5647.061336
22935.376080,-2488.535504,13036.097525,12997.812363
22935.378604,440.279358,-267.996131,9360.722011
22935.381127,3349.951640,-11083.554283,5934.200048
22935.383650,-3139.383251,13304.093656,13265.808494
22935.386173,1875.972918,-478.564520,9475.577496
22935.388697,2029.113565,-9035.298138,6240.481341
22935.391220,-689.132909,1933.400661,9590.432981
22935.393743,-1607.976787,9475.577496,12461.820101
22935.396267,1646.261949,-6987.041992,7580.461997
22935.398790,-229.710970,631.705166,9207.581365
22935.401313,-382.851616,5723.631659,11083.554283
22935.403836,1052.841944,-2871.387120,8671.589102
22935.406360,191.425808,-306.281293,8977.870395
22935.408883,-516.849682,4039.084549,10604.989763
22935.411406,497.707101,-555.134843,9131.011042
22935.413929,1205.982590,-191.425808,9073.583299
22935.416453,-363.709035,3943.371645,10375.278794
22935.418976,-76.570323,-172.283227,9494.720077
22935.421499,1282.552914,-1244.267752,8748.159426
22935.424023,-114.855485,-593.420005,9322.436850
22935.426546,-76.570323,4900.500685,10815.558152
22935.429069,421.136778,-3388.236802,8652.446522
22935.431592,1071.984525,2469.392923,9590.432981
22935.434116,57.427742,-153.140646,9494.720077
22935.436639,-2641.676150,2163.111630,10183.852986
22935.439162,1895.115499,1339.980656,9877.571693
22935.441686,-918.843878,-8958.727814,7255.038123
22935.444209,-2009.970984,13036.097525,13304.093656
22935.446732,746.560651,-7886.743290,7465.606512
22935.449255,1837.687757,-6106.483275,7484.749093
22935.451779,-4230.510357,14318.650438,13954.941403
22935.454306,-2124.826469,5551.348432,11542.976222
22935.456834,3503.092286,-13227.523333,5532.205851
22935.459362,-2871.387120,8499.305875,11887.542677
22935.461889,-918.843878,3924.229064,11217.552349
22935.464417,1875.972918,-12212.966550,5934.200048
22935.466945,-1569.691626,7044.469734,11294.122672
22935.469472,-382.851616,3273.381317,10758.130410
22935.472000,1148.554848,-7867.600709,7197.610381
22935.474528,-1359.123237,4364.508422,10547.562021
22935.477055,-555.134843,3330.809059,10872.985894
22935.479583,-57.427742,-5742.774240,7714.460062
22935.482111,-1033.699363,2277.967115,10107.282662
22935.484638,-1014.556782,2699.103893,10892.128475
22935.487166,133.998066,-2373.680019,9226.723946
22935.489694,727.418070,-3005.385186,8575.876198
22935.492221,-976.271621,4173.082614,10662.417506
22935.494749,-1454.836141,-708.275490,9686.145885
22935.497277,995.414202,-2507.678085,8614.161360
22935.499804,-1091.127106,1320.838075,9858.429112
22935.502332,363.709035,3081.955509,10375.278794
22935.504859,-363.709035,-5493.920690,8403.592971
22935.507387,-535.992262,4766.502619,10738.987829
22935.509915,1646.261949,-2545.963246,8786.444587
22935.512442,-1359.123237,-229.710970,9226.723946
22935.514970,1454.836141,7733.602643,11313.265253
22935.517498,1990.828403,-6049.055533,7829.315547
22935.520025,421.136778,-957.129040,8748.159426
22935.522553,-2852.244539,12557.533005,13036.097525
22935.525081,3273.381317,-9781.858789,6431.907149
22935.527608,708.275490,-248.853550,8997.012976
22935.530136,-2316.252277,11696.116869,13016.954944
22935.532664,3617.947771,-10738.987829,6355.336826
22935.535191,-689.132909,2105.683888,9533.005238
22935.537719,-1741.974853,11657.831707,12921.242040
22935.540247,2105.683888,-9609.575562,6661.618118
22935.542774,-19.142581,1416.550979,9284.151688
22935.545302,-995.414202,7255.038123,11657.831707
22935.547830,1971.685822,-4996.213589,10356.136213
22935.550357,1071.984525,-4594.219392,7963.313613
22935.552885,-114.855485,3637.090352,10336.993632
22935.555416,-114.855485,2239.681954,10164.710405
22935.557948,1110.269686,-1856.830338,8518.448456
22935.560479,440.279358,2909.672282,9877.571693
22935.563010,-344.566454,1875.972918,10030.712339
22935.565542,38.285162,-1320.838075,9016.155557
22935.568073,727.418070,2201.396792,9762.716208
22935.570604,325.423874,-325.423874,9399.007173
22935.573135,689.132909,899.701298,9590.432981
22935.575667,133.998066,133.998066,9590.432981
22935.578198,-229.710970,2411.965181,9801.001370
22935.580729,1646.261949,2182.254211,9705.288466
22935.583261,-1091.127106,-5953.342629,8039.883936
22935.585792,-1914.258080,10375.278794,12538.390424
22935.588323,1741.974853,-7542.176835,7523.034254
22935.590855,-133.998066,-5589.633594,7810.172966
22935.593386,-2469.392923,15180.066574,14203.794954
22935.595917,1971.685822,-12327.822035,6010.770371
22935.598449,-363.709035,-1646.261949,8843.872330
22935.600980,-4134.797453,13667.802691,13725.230434
22935.603511,3330.809059,-11600.403965,6068.198114
22935.606042,-918.843878,-746.560651,8939.585234
22935.608574,-2316.252277,11408.978157,13227.523333
22935.611105,1607.976787,-11255.837510,10011.569758
22935.613636,1244.267752,-10049.854920,6355.336826
22935.616168,-1627.119368,8575.876198,11753.544611
22935.618699,689.132909,210.568389,9877.571693
22935.621230,-38.285162,-5666.203917,7867.600709
22935.623762,-1627.119368,5685.346498,11121.839445
22935.626293,-363.709035,-1148.554848,9379.864592
22935.628824,153.140646,-3330.809059,8518.448456
22935.631356,-1033.699363,3024.527766,10681.560086
22935.633887,440.279358,-2163.111630,9188.438784
22935.636418,344.566454,-765.703232,9188.438784
22935.638950,-1799.402595,2852.244539,10490.134278
22935.641481,382.851616,-2565.105827,8882.157491
22935.644012,-114.855485,-4479.363907,8231.309744
22935.646543,19.142581,4900.500685,10643.274925
22935.649075,-650.847747,-1990.828403,9418.149754
22935.651606,76.570323,669.990328,9609.575562
22935.654137,1741.974853,-1512.263883,8920.442653
22935.656672,-1780.260014,689.132909,9647.860723
22935.659206,1550.549045,6604.190376,10968.698798
22935.661741,1799.402595,-10834.700733,6336.194245
22935.664275,-497.707101,11045.269122,12308.679454
22935.666809,-1550.549045,3445.664544,10432.706536
22935.669344,2775.674216,-11217.552349,5857.629725
22935.671878,-2469.392923,11676.974288,12595.818166
22935.674413,689.132909,1895.115499,10356.136213
22935.676947,3828.516160,-10681.560086,6470.192310
22935.679481,-555.134843,1033.699363,9226.723946
22935.682016,-1990.828403,12691.531070,13208.380752
22935.684550,2182.254211,-9379.864592,6680.760699
22935.687084,76.570323,401.994197,8977.870395
22935.689619,-1129.412267,7350.751027,11753.544611
22935.692153,1493.121302,-3771.088418,8595.018779
22935.694688,114.855485,-708.275490,8843.872330
22935.697222,-38.285162,3426.521963,10413.563955
22935.699756,478.564520,-57.427742,9360.722011
22935.702291,1416.550979,1129.412267,9379.864592
22935.704825,-421.136778,1684.547110,9686.145885
22935.707360,-191.425808,1493.121302,9992.427178
22935.709894,842.273555,823.130974,9437.292334
22935.712428,95.712904,-1512.263883,8920.442653
22935.714963,248.853550,3828.516160,10375.278794
22935.717497,-95.712904,-1033.699363,9226.723946
22935.720032,2048.256146,191.425808,9111.868461
22935.722566,-1320.838075,-363.709035,9456.434915
22935.725100,-1990.828403,6565.905214,11179.267187
22935.727635,2507.678085,-6470.192310,7618.747158
22935.730169,-2373.680019,-1129.412267,9322.436850
22935.732704,-1263.410333,12691.531070,13380.663979
22935.735238,1646.261949,-17017.754331,4747.360038
22935.737772,2833.101958,5245.067139,5915.057467
22935.740307,-4594.219392,16347.764003,14548.361408
22935.742841,650.847747,-5953.342629,8212.167163
22935.745375,1799.402595,-9169.296203,6336.194245
22935.747910,-3541.377448,16252.051099,14299.507858
22935.750444,1741.974853,-7140.182638,7829.315547
22935.752979,650.847747,-8403.592971,6757.331022
22935.755513,-3158.525832,13514.662045,13648.660110
22935.758050,976.271621,-6240.481341,8212.167163
22935.760588,133.998066,-5608.776174,7561.319416
22935.763125,-1837.687757,10279.565890,12346.964616
22935.765663,823.130974,-3101.098090,8977.870395
22935.768200,-229.710970,-4575.076811,8078.169098
22935.770737,-1339.980656,2201.396792,10126.425243
22935.773275,-1493.121302,2967.100024,10834.700733
22935.775812,1952.543242,-5704.489078,8001.598774
22935.778349,76.570323,2124.826469,9954.142016
22935.780887,-2182.254211,2699.103893,10566.704602
22935.783424,306.281293,-3177.668413,8537.591037
22935.785961,-727.418070,-1186.840010,9245.866526
22935.788499,19.142581,4996.213589,10892.128475
22935.791036,-248.853550,-4268.795518,8614.161360
22935.793574,-57.427742,2641.676150,10088.140082
22935.796111,1741.974853,-1435.693560,9073.583299
22935.798648,-1569.691626,-267.996131,9456.434915
22935.801186,-325.423874,6776.473603,12270.394293
22935.803723,2220.539373,-5761.916821,7810.172966
22935.806260,727.418070,-1167.697429,8748.159426
22935.808798,-2584.248408,12768.101394,13131.810429
22935.811335,3139.383251,-9590.432981,6508.477472
22935.813872,650.847747,-497.707101,8882.157491
22935.816410,-2431.107762,12021.540742,12997.812363
22935.818947,3369.094221,-11370.692995,6317.051664
22935.821485,-765.703232,2354.537438,9628.718142
22935.824022,-1531.406464,11696.116869,12844.671717
22935.826559,2526.820666,-10049.854920,6278.766502
22935.829097,-114.855485,2067.398726,9360.722011
22935.831634,-574.277424,6738.188442,11715.259450
22935.834171,1301.695494,-248.853550,9686.145885
22935.836709,631.705166,-2679.961312,8499.305875
22935.839249,95.712904,4575.076811,10432.706536
22935.841789,325.423874,-172.283227,9341.579430
22935.844328,153.140646,1014.556782,9322.436850
22935.846868,-114.855485,1799.402595,9877.571693
22935.849408,1014.556782,-689.132909,9284.151688
22935.851947,-382.851616,2565.105827,10145.567824
22935.854487,823.130974,-421.136778,9303.294269
22935.857026,344.566454,-746.560651,9092.725880
22935.859566,287.138712,3215.953574,10298.708470
22935.862106,-1110.269686,267.996131,9686.145885
22935.864645,2297.109696,-421.136778,9858.429112
22935.867185,325.423874,-6910.471669,7561.319416
22935.869725,-3177.668413,7714.460062,11849.257515
22935.872264,1110.269686,612.562586,9896.714274
22935.874804,708.275490,-13246.665914,5570.491013
22935.877344,-2335.394858,15505.490448,14127.224630
22935.879883,555.134843,-4421.936165,8556.733618
22935.882423,2105.683888,-11447.263318,5972.485210
22935.884962,-4536.791650,14988.640766,13859.228499
22935.887502,1665.404530,-4153.940034,8480.163294
22935.890042,1167.697429,-9169.296203,6451.049730
22935.892581,-3062.812928,14165.509792,13763.515595
22935.895121,708.275490,-6163.911018,8231.309744
22935.897661,2029.113565,-12576.675586,5991.627790
22935.900200,-1014.556782,3924.229064,10470.991698
22935.902740,-650.847747,6221.338760,11447.263318
22935.905280,861.416136,-6661.618118,7695.317482
22935.907819,-1397.408398,1722.832272,9992.427178
22935.910359,-1531.406464,2928.814862,10777.272990
22935.912899,631.705166,-4919.643266,8384.450390
22935.915438,765.703232,708.275490,9667.003304
22935.917978,-172.283227,2220.539373,10164.710405
22935.920517,-1071.984525,-3215.953574,8767.302006
22935.923057,-631.705166,2584.248408,10088.140082
22935.925597,-899.701298,-957.129040,9475.577496
22935.928136,516.849682,459.421939,9284.151688
22935.930676,861.416136,-421.136778,9437.292334
22935.933216,-1914.258080,1205.982590,9992.427178
22935.935755,2297.109696,2584.248408,9934.999435
22935.938295,-650.847747,-8193.024582,7293.323285
22935.940837,-1339.980656,12212.966550,12691.531070
22935.943379,1550.549045,-2488.535504,8690.731683
22935.945920,1473.978722,-6699.903280,7121.040058
22935.948462,-2622.533570,14682.359474,13591.232368
22935.951004,2316.252277,-6451.049730,7523.034254
22935.953546,2009.970984,-5876.772306,7178.467800
22935.956088,-3024.527766,14414.363342,13533.804626
22935.958630,2852.244539,-7944.171032,7369.893608
22935.961172,2737.389054,-12136.396227,5666.203917
22935.963713,-1818.545176,9954.142016,11849.257515
22935.966255,-574.277424,4039.084549,10834.700733
22935.968797,1588.834206,-8767.302006,6451.049730
22935.971339,-995.414202,6393.621987,11083.554283
22935.973881,995.414202,2297.109696,10470.991698
22935.976423,1263.410333,-5091.926493,7867.600709
22935.978965,-38.285162,5455.635528,10547.562021
22935.981506,153.140646,1761.117434,9839.286531
22935.984048,382.851616,-2699.103893,8288.737486
22935.986590,-727.418070,4039.084549,10432.706536
22935.989132,1129.412267,1665.404530,9820.143950
22935.991674,784.845813,-3503.092286,8461.020714
22935.994216,478.564520,937.986459,9437.292334
22935.996758,-95.712904,2679.961312,10164.710405
22935.999299,-478.564520,114.855485,9399.007173
22936.001841,1761.117434,-1071.984525,9092.725880
22936.004383,-2373.680019,-172.283227,9686.145885
22936.006925,172.283227,7580.461997,11523.833642
22936.009467,1225.125171,-12212.966550,6106.483275
22936.012009,-1493.121302,5551.348432,11217.552349
22936.014551,-1320.838075,6297.909083,11753.544611
22936.017092,3043.670347,-14376.078181,5187.639397
22936.019634,-2967.100024,9054.440718,12193.823970
22936.022176,-2277.967115,5187.639397,11676.974288
22936.024718,2392.822600,-8595.018779,7178.467800
22936.027260,-0.000000,-4153.940034,7905.885870
22936.029802,-2545.963246,12691.531070,13361.521398
22936.032344,1454.836141,-9092.725880,7197.610381
22936.034885,306.281293,-2852.244539,8518.448456
22936.037427,-1703.689691,8767.302006,12232.109131
22936.039969,1091.127106,-5647.061336,8059.026517
22936.042513,-708.275490,-1646.261949,8786.444587
22936.045056,-1761.117434,5876.772306,11389.835576
22936.047600,-133.998066,-4517.649069,8461.020714
22936.050144,-76.570323,-1588.834206,9169.296203
22936.052688,-650.847747,4651.647134,11064.411702
22936.055231,669.990328,-3273.381317,8805.587168
22936.057775,401.994197,-5015.356170,8059.026517
22936.060319,-1818.545176,3598.805190,10490.134278
22936.062862,-287.138712,1761.117434,10126.425243
22936.065406,76.570323,-4632.504554,8135.596840
22936.067950,1129.412267,2775.674216,10088.140082
22936.070493,-1933.400661,114.855485,9915.856854
22936.073037,1129.412267,3388.236802,10030.712339
22936.075581,899.701298,-7331.608446,7484.749093
22936.078124,-1741.974853,8327.022648,11791.829773
22936.080668,823.130974,3675.375514,10394.421374
22936.083212,2277.967115,-11121.839445,5685.346498
22936.085755,-2277.967115,12404.392358,12806.386555
22936.088299,-2986.242605,13380.663979,13418.949141
22936.090843,4192.225195,-11676.974288,6029.912952
22936.093386,-689.132909,1416.550979,9456.434915
22936.095930,-1531.406464,11925.827838,13055.240106
22936.098474,3120.240670,-11887.542677,5991.627790
22936.101017,-803.988394,3407.379382,9954.142016
22936.103561,-2105.683888,9667.003304,12461.820101
22936.106105,1435.693560,-7274.180704,7312.465866
22936.108649,-114.855485,1263.410333,9379.864592
22936.111192,287.138712,5091.926493,11026.126541
22936.113736,1818.545176,-3081.955509,8327.022648
22936.116280,650.847747,1799.402595,9552.147819
22936.118823,-1167.697429,3043.670347,10336.993632
22936.121367,-631.705166,1454.836141,9762.716208
22936.123911,1033.699363,382.851616,9188.438784
22936.126454,363.709035,-995.414202,9150.153622
22936.128998,574.277424,3694.518094,10566.704602
22936.131542,-57.427742,-1033.699363,9169.296203
22936.134085,1627.119368,593.420005,9226.723946
22936.136629,-746.560651,-746.560651,9533.005238
22936.139173,-2507.678085,5091.926493,11045.269122
22936.141716,2679.961312,-3637.090352,8403.592971
22936.144245,-1856.830338,-4728.217458,8193.024582
22936.146774,-1933.400661,14146.367211,13667.802691
22936.149302,1339.980656,-13859.228499,5800.201982
22936.151831,2909.672282,-14127.224630,5149.354235
22936.154360,-4153.940034,14567.503989,13801.800757
22936.156888,-765.703232,-823.130974,9877.571693
22936.159417,2986.242605,-12997.812363,5532.205851
22936.161946,-3177.668413,14452.648504,13572.089787
22936.164474,918.843878,-2124.826469,9265.009107
22936.167003,1129.412267,-11313.265253,5934.200048
22936.169532,-3215.953574,12500.105262,13284.951075
22936.172060,248.853550,-2335.394858,9456.434915
22936.174589,765.703232,-7771.887805,7044.469734
22936.177118,-1856.830338,8556.733618,11830.114934
22936.179646,210.568389,-784.845813,9743.573627
22936.182175,172.283227,-6623.332957,7637.889739
22936.184704,-133.998066,401.994197,9513.862658
22936.187232,-1033.699363,4555.934230,11045.269122
22936.189761,19.142581,-5015.356170,8384.450390
22936.192290,306.281293,0.000000,9341.579430
22936.194818,-1301.695494,2335.394858,10126.425243
22936.197347,497.707101,-918.843878,9169.296203
22936.199876,-823.130974,-1569.691626,9111.868461
22936.202404,1167.697429,2660.818731,10222.138147
22936.204933,-880.558717,-3024.527766,8958.727814
22936.207462,-650.847747,6623.332957,11064.411702
22936.209990,2220.539373,-5072.783912,7905.885870
22936.212519,-1014.556782,516.849682,9494.720077
22936.215048,-382.851616,13572.089787,12825.529136
22936.217576,287.138712,-3177.668413,8480.163294
22936.220105,708.275490,-6795.616184,7369.893608
22936.222633,-3043.670347,14605.789150,13667.802691
22936.225162,3081.955509,-5379.065205,8097.311678
22936.227691,957.129040,-6183.053598,7197.610381
22936.230219,-2182.254211,13954.941403,13361.521398
22936.232748,2431.107762,-7178.467800,7599.604578
22936.235277,803.988394,-3254.238736,7982.456194
22936.237805,-2565.105827,12251.251712,13016.954944
22936.240334,1205.982590,-4670.789715,8327.022648
22936.242863,382.851616,-3541.377448,8059.026517
22936.245395,-593.420005,8365.307810,10375.278794
22936.247928,287.138712,5053.641331,10834.700733
22936.250460,1339.980656,-5455.635528,7733.602643
22936.252993,-669.990328,3311.666478,10241.280728
22936.255525,114.855485,4689.932296,10643.274925
22936.258058,440.279358,-4881.358104,7829.315547
22936.260590,-57.427742,3713.660675,10413.563955
22936.263123,-267.996131,2163.111630,10183.852986
22936.265655,2163.111630,-3273.381317,8307.880067
22936.268187,-2297.109696,2545.963246,10279.565890
22936.270720,689.132909,5513.063270,10796.415571
22936.273252,1186.840010,-11179.267187,6585.047795
22936.275785,-3235.096155,9590.432981,12308.679454
22936.278317,-1722.832272,14376.078181,13820.943338
22936.280850,1397.408398,-16041.482710,5168.496816
22936.283382,-0.000000,3732.803256,10413.563955
22936.285915,-1990.828403,11083.554283,12844.671717
22936.288447,3139.383251,-16539.189811,4766.502619
22936.290980,-2775.674216,5723.631659,10949.556218
22936.293512,-1435.693560,9571.290400,12729.816232
22936.296045,2737.389054,-14816.357539,5168.496816
22936.298577,-1971.685822,7255.038123,11332.407834
22936.301110,-1397.408398,5991.627790,11600.403965
22936.303642,2411.965181,-12385.249778,5895.914886
22936.306174,-1110.269686,5053.641331,10834.700733
22936.308707,-516.849682,4900.500685,12174.681389
22936.311239,765.703232,-3809.373579,8882.157491
22936.313772,-114.855485,-3981.656806,8327.022648
22936.316304,-1359.123237,6336.194245,11370.692995
22936.318837,459.421939,-3120.240670,8805.587168
22936.321369,-459.421939,-3464.807125,8767.302006
22936.323902,-267.996131,4996.213589,11140.982026
22936.326434,133.998066,-3215.953574,8652.446522
22936.328967,574.277424,306.281293,9379.864592
22936.331499,-1914.258080,2201.396792,10394.421374
22936.334032,1741.974853,-746.560651,9131.011042
22936.336564,-325.423874,-4479.363907,8327.022648
22936.339097,-2048.256146,10509.276859,12193.823970
22936.341629,1741.974853,7121.040058,11562.118803
22936.344161,2143.969050,-14452.648504,5187.639397
22936.346697,-1225.125171,13667.802691,12844.671717
22936.349233,-1282.552914,3292.523898,10432.706536
22936.351768,2239.681954,-13438.091722,5398.207786
22936.354304,-2967.100024,15065.211090,13667.802691
22936.356840,1550.549045,325.423874,9858.429112
22936.359375,2565.105827,-12346.964616,5359.922624
22936.361911,-2756.531635,14758.929797,13514.662045
22936.364446,1320.838075,-1799.402595,9150.153622
22936.366982,1550.549045,-9150.153622,6374.479406
22936.369518,-2086.541307,13284.951075,12997.812363
22936.372053,995.414202,-2067.398726,9245.866526
22936.374589,1971.685822,-8461.020714,7082.754896
22936.377124,-535.992262,4383.651003,10222.138147
22936.379660,-535.992262,5551.348432,11045.269122
22936.382196,1186.840010,-6010.770371,7618.747158
22936.384731,267.996131,3981.656806,10336.993632
22936.387267,-363.709035,4345.365842,10547.562021
22936.389802,1033.699363,-4747.360038,7886.743290
22936.392338,19.142581,2967.100024,10068.997501
22936.394874,-191.425808,2067.398726,10222.138147
22936.397409,1033.699363,-459.421939,8958.727814
22936.399945,1263.410333,-1971.685822,8863.014910
22936.402481,-3522.234867,4058.227130,11006.983960
22936.405016,-1550.549045,10566.704602,12614.960747
22936.407552,1665.404530,-12212.966550,5972.485210
22936.410087,-842.273555,344.566454,9533.005238
22936.412623,-2277.967115,13131.810429,13878.371080
22936.415159,3158.525832,-15984.054968,4900.500685
22936.417694,-1837.687757,4728.217458,10719.845248
22936.420230,-4364.508422,11562.118803,13380.663979
22936.422765,3522.234867,-15984.054968,4804.787781
22936.425301,-1665.404530,4804.787781,10547.562021
22936.427837,-803.988394,9858.429112,12748.958813
22936.430372,2105.683888,-14644.074312,5417.350366
22936.432908,-2124.826469,6010.770371,11006.983960
22936.435444,-1244.267752,6049.055533,11830.114934
22936.437979,823.130974,-5589.633594,8173.882002
22936.440515,-344.566454,-4307.080680,8269.594906
22936.443050,-1473.978722,8288.737486,12078.968485
22936.445586,1052.841944,-5704.489078,8059.026517
22936.448124,-267.996131,-1205.982590,8958.727814
22936.450662,-2756.531635,5321.637462,11466.405899
22936.453201,1397.408398,-5034.498750,8250.452325
22936.455739,-267.996131,-1569.691626,8958.727814
22936.458277,-191.425808,5895.914886,11102.696864
22936.460815,-765.703232,-4651.647134,8441.878133
22936.463354,842.273555,1378.265818,9628.718142
22936.465892,-1110.269686,-1148.554848,9379.864592
22936.468430,-1818.545176,2354.537438,10049.854920
22936.470968,1780.260014,5130.211654,10738.987829
22936.473507,1856.830338,-10968.698798,6355.336826
22936.476045,-803.988394,11619.546546,12404.392358
22936.478583,-1282.552914,2737.389054,10164.710405
22936.481121,1799.402595,-11274.980091,6068.198114
22936.483660,-2450.250342,13380.663979,13208.380752
22936.486198,1531.406464,19.142581,9609.575562
22936.488736,2660.818731,-10566.704602,6029.912952
22936.491274,-2890.529701,13265.808494,13093.525267
22936.493812,1244.267752,-1741.974853,9207.581365
22936.496351,803.988394,-7829.315547,6929.614250
22936.498889,-2067.398726,12500.105262,12902.099459
22936.501427,-325.423874,6853.043926,11523.833642
22936.503965,1818.545176,-8863.014910,6929.614250
22936.506504,-861.416136,5742.774240,10566.704602
22936.509042,-459.421939,4211.367776,10585.847182
22936.511580,1320.838075,-6451.049730,7523.034254
22936.514118,306.281293,6451.049730,11006.983960
22936.516657,-593.420005,1684.547110,9877.571693
22936.519195,803.988394,-3369.094221,8269.594906
22936.521733,-1129.412267,4039.084549,10490.134278
22936.524271,1512.263883,0.000000,9533.005238
22936.526810,-1301.695494,-1933.400661,8824.729749
22936.529348,1110.269686,6872.186507,11140.982026
22936.531886,1761.117434,-4996.213589,8327.022648
22936.534424,-2220.539373,-3503.092286,8729.016845
22936.536963,-1799.402595,12519.247843,13189.238171
22936.539501,1378.265818,-14605.789150,5340.780043
22936.542039,-19.142581,4115.654872,10681.560086
22936.544577,-1148.554848,9896.714274,12519.247843
22936.547115,3005.385186,-16118.053034,4862.215523
22936.549656,-3445.664544,6929.614250,11351.550414
22936.552197,-1741.974853,7963.313613,12327.822035
22936.554738,2928.814862,-14739.787216,5168.496816
22936.557279,-1933.400661,8843.872330,11810.972354
22936.559820,-899.701298,4345.365842,11236.694930
22936.562360,1895.115499,-11064.411702,6221.338760
22936.564901,-382.851616,-3043.670347,8403.592971
22936.567442,-1512.263883,7657.032320,11734.402030
22936.569983,1014.556782,-4900.500685,8690.731683
22936.572524,478.564520,-1569.691626,9073.583299
22936.575065,-995.414202,4651.647134,10892.128475
22936.577605,-861.416136,-3962.514226,8671.589102
22936.580146,535.992262,-1493.121302,9150.153622
22936.582687,-708.275490,2411.965181,10413.563955
22936.585228,957.129040,-555.134843,9379.864592
22936.587769,-1129.412267,-937.986459,9131.011042
22936.590309,899.701298,2124.826469,10126.425243
22936.592850,-1339.980656,-2986.242605,8997.012976
22936.595391,-1780.260014,5359.922624,10681.560086
22936.597932,2622.533570,1550.549045,9724.431046
22936.600473,899.701298,-8767.302006,6929.614250
22936.603014,-689.132909,14012.369146,13265.808494
22936.605554,593.420005,-4383.651003,8039.883936
22936.608095,57.427742,-6029.912952,7350.751027
22936.610636,-2679.961312,15275.779478,13840.085918
22936.613177,4153.940034,-7810.172966,7427.321350
22936.615718,1071.984525,-3905.086483,7752.745224
22936.618259,-2335.394858,14758.929797,13667.802691
22936.620799,2182.254211,-10126.425243,6699.903280
22936.623340,-114.855485,-727.418070,8556.733618
22936.625881,-1435.693560,10681.560086,12614.960747
22936.628422,861.416136,593.420005,9820.143950
22936.630963,1741.974853,-5934.200048,7580.461997
22936.633503,-1014.556782,7561.319416,11198.409768
22936.636044,153.140646,-440.279358,9150.153622
22936.638585,689.132909,-2794.816797,8365.307810
22936.641126,440.279358,6719.045861,11026.126541
22936.643667,689.132909,-1914.258080,8958.727814
22936.646208,535.992262,38.285162,9073.583299
22936.648748,-1339.980656,3483.949706,10547.562021
22936.651291,2220.539373,-1033.699363,8901.300072
22936.653834,-382.851616,-3024.527766,8652.446522
22936.656377,-1550.549045,9207.581365,11983.255581
22936.658920,1435.693560,2833.101958,10432.706536
22936.661462,-191.425808,-13974.083984,5781.059402
22936.664005,-3043.670347,15294.922059,13859.228499
22936.666548,306.281293,-4747.360038,8365.307810
22936.669091,2890.529701,-11523.833642,5857.629725
22936.671634,-3694.518094,17190.037558,14605.789150
22936.674177,1244.267752,-8116.454259,7657.032320
22936.676719,957.129040,-8843.872330,6719.045861
22936.679262,-3637.090352,16558.332392,14414.363342
22936.681805,2067.398726,-8518.448456,7350.751027
22936.684348,516.849682,-5608.776174,7293.323285
22936.686891,-2297.109696,12308.679454,13227.523333
22936.689433,1014.556782,-7312.465866,7791.030386
22936.691976,306.281293,-7925.028451,7255.038123
22936.694519,-1320.838075,4689.932296,10719.845248
22936.697062,248.853550,1071.984525,10260.423309
22936.699605,823.130974,-4843.072942,8078.169098
22936.702148,-1607.976787,3215.953574,10356.136213
22936.704690,-1052.841944,-1378.265818,9494.720077
22936.707233,-133.998066,-1225.125171,9284.151688
22936.709776,-306.281293,1684.547110,10126.425243
22936.712319,363.709035,-401.994197,9226.723946
22936.714862,-478.564520,-1205.982590,9245.866526
22936.717405,-2297.109696,3464.807125,10547.562021
22936.719947,3196.810994,-210.568389,9054.440718
22936.722490,1952.543242,-9571.290400,6642.475538
22936.725033,-1167.697429,7771.887805,11600.403965
22936.727576,229.710970,5876.772306,11351.550414
22936.730119,2431.107762,-12825.529136,5264.209720
22936.732661,-2411.965181,12117.253646,12423.534939
22936.735204,210.568389,1741.974853,10222.138147
22936.737747,3751.945837,-11830.114934,5742.774240
22936.740290,-2431.107762,13935.798822,13304.093656
22936.742833,995.414202,-937.986459,9456.434915
22936.745376,631.705166,-8843.872330,6489.334891
22936.747918,-1454.836141,12366.107197,12825.529136
22936.750461,1301.695494,-3196.810994,8882.157491
22936.753006,842.273555,-3483.949706,8078.169098
22936.755550,-133.998066,5015.356170,10662.417506
22936.758094,325.423874,2545.963246,10164.710405
22936.760639,325.423874,-4307.080680,7963.313613
22936.763183,-612.562586,6202.196179,10872.985894
22936.765728,1186.840010,746.560651,9533.005238
22936.768272,765.703232,-3407.379382,8441.878133
22936.770816,-497.707101,6144.768437,10968.698798
22936.773361,-0.000000,-1588.834206,9131.011042
22936.775905,1818.545176,-306.281293,8958.727814
22936.778450,-516.849682,95.712904,9590.432981
22936.780994,-1473.978722,5072.783912,10930.413637
22936.783539,2009.970984,-5149.354235,8059.026517
22936.786083,-229.710970,-2756.531635,6259.623922
22936.788627,-2373.680019,12346.964616,13170.095590
22936.791172,19.142581,-2009.970984,9188.438784
22936.793716,2794.816797,-12136.396227,5685.346498
22936.796261,-3464.807125,15467.205286,14069.796888
22936.798805,306.281293,-4919.643266,8690.731683
22936.801349,1761.117434,-10298.708470,6374.479406
22936.803894,-3464.807125,14471.791085,13744.373014
22936.806438,1397.408398,-4957.928427,8327.022648
22936.808983,555.134843,-7369.893608,6987.041992
22936.811527,-1952.543242,10662.417506,12748.958813
22936.814071,650.847747,-4517.649069,8633.303941
22936.816616,-650.847747,-3483.949706,8384.450390
22936.819160,-1263.410333,3962.514226,10566.704602
22936.821705,497.707101,937.986459,10011.569758
22936.824249,478.564520,-5321.637462,8097.311678
22936.826793,-2048.256146,3445.664544,10585.847182
22936.829338,95.712904,-459.421939,9475.577496
22936.831882,229.710970,-4230.510357,8422.735552
22936.834427,-344.566454,4996.213589,10853.843314
22936.836971,-918.843878,-1703.689691,9131.011042
22936.839516,1339.980656,-555.134843,9073.583299
22936.842060,-1263.410333,-880.558717,9609.575562
22936.844604,-976.271621,7484.749093,11313.265253
22936.847149,3043.670347,-5857.629725,7503.891674
22936.849693,-555.134843,-880.558717,6087.340694
22936.852238,-976.271621,13438.091722,13189.238171
22936.854768,-363.709035,-76.570323,9379.864592
22936.857297,1263.410333,-10030.712339,6144.768437
22936.859827,-2335.394858,14988.640766,13418.949141
22936.862356,2679.961312,-3215.953574,8786.444587
22936.864885,2163.111630,-7695.317482,6814.758765
22936.867414,-2354.537438,13208.380752,13150.953010
22936.869944,1416.550979,-4728.217458,8307.880067
22936.872473,306.281293,-4689.932296,7580.461997
22936.875002,-1378.265818,10088.140082,12251.251712
22936.877531,1971.685822,-3732.803256,8556.733618
22936.880060,267.996131,-1397.408398,8748.159426
22936.882590,-1110.269686,6355.336826,10930.413637
22936.885119,248.853550,1588.834206,9705.288466
22936.887648,1493.121302,-3254.238736,8135.596840
22936.890177,-1129.412267,5340.780043,11026.126541
22936.892707,746.560651,631.705166,9590.432981
22936.895236,191.425808,-2354.537438,8556.733618
22936.897765,880.558717,4402.793584,10432.706536
22936.900294,-880.558717,-2909.672282,8977.870395
22936.902824,363.709035,4728.217458,10413.563955
22936.905353,1052.841944,-6202.196179,7886.743290
22936.907882,-2947.957443,2775.674216,10643.274925
22936.910411,-574.277424,5934.200048,11485.548480
22936.912941,1320.838075,-14108.082050,5436.492947
22936.915470,1282.552914,-3273.381317,8346.165229
22936.917999,-2660.818731,13686.945272,13495.519464
22936.920528,2316.252277,-12959.527202,6087.340694
22936.923058,-1244.267752,-555.134843,9303.294269
22936.925587,-2947.957443,12040.683323,13399.806560
22936.928116,2450.250342,-11294.122672,6317.051664
22936.930645,-957.129040,823.130974,9360.722011
22936.933175,-1359.123237,9379.864592,12576.675586
22936.935704,1359.123237,-8748.159426,7159.325219
22936.938233,-1531.406464,650.847747,9437.292334
22936.940762,-1225.125171,5781.059402,11389.835576
22936.943292,1148.554848,-6987.041992,7848.458128
22936.945821,229.710970,-4479.363907,8231.309744
22936.948350,-2220.539373,4326.223261,11006.983960
22936.950879,229.710970,-1244.267752,9188.438784
22936.953409,172.283227,-3790.230998,8499.305875
22936.955942,-114.855485,4441.078746,10815.558152
22936.958474,-1167.697429,-1856.830338,9322.436850
22936.961007,612.562586,1435.693560,9513.862658
22936.963540,842.273555,-3005.385186,8843.872330
22936.966073,-1646.261949,5532.205851,10968.698798
22936.968606,2699.103893,1569.691626,9590.432981
22936.971139,995.414202,-9456.434915,6546.762634
22936.973672,-995.414202,14548.361408,13457.234302
22936.976205,535.992262,-3809.373579,12576.675586
22936.978738,2660.818731,-13284.951075,5589.633594
22936.981271,-1033.699363,8422.735552,11332.407834
22936.983804,-440.279358,6814.758765,11581.261384
22936.986337,3445.664544,-12136.396227,5704.489078
22936.988870,-1780.260014,8154.739421,11542.976222
22936.991403,-57.427742,4345.365842,11045.269122
22936.993936,1512.263883,-9533.005238,6470.192310
22936.996469,-1512.263883,7427.321350,11236.694930
22936.999002,1205.982590,2928.814862,10432.706536
22937.001535,1569.691626,-6738.188442,7331.608446
22937.004068,-1071.984525,6929.614250,11083.554283
22937.006600,191.425808,2048.256146,9781.858789
22937.009133,918.843878,-3809.373579,8250.452325
22937.011666,306.281293,631.705166,9456.434915
22937.014199,-133.998066,5264.209720,10777.272990
22937.016732,1110.269686,-4230.510357,8250.452325
22937.019265,-593.420005,3522.234867,10260.423309
22937.021798,1722.832272,133.998066,9571.290400
22937.024331,-2143.969050,-3981.656806,8556.733618
22937.026864,-612.562586,9992.427178,12174.681389
22937.029397,823.130974,-12327.822035,6317.051664
22937.031930,-803.988394,4192.225195,10719.845248
22937.034463,-1359.123237,7255.038123,11868.400096
22937.036996,2890.529701,-14337.793019,5225.924558
22937.039529,-2718.246474,9418.149754,12040.683323
22937.042062,-4804.787781,13438.091722,13897.513661
22937.044595,1952.543242,-10796.415571,6795.616184
22937.047128,267.996131,-2679.961312,8384.450390
22937.049661,-1244.267752,12155.538808,13112.667848
22937.052193,1627.119368,-9111.868461,7101.897477
22937.054726,-861.416136,-1875.972918,8767.302006
22937.057262,-2105.683888,8537.591037,12289.536874
22937.059798,803.988394,-6183.053598,8020.741355
22937.062334,-382.851616,-1301.695494,9150.153622
22937.064870,-1091.127106,5493.920690,11389.835576
22937.067406,57.427742,-5972.485210,8154.739421
22937.069942,114.855485,-440.279358,9131.011042
22937.072478,-995.414202,3483.949706,10394.421374
22937.075014,631.705166,248.853550,9743.573627
22937.077550,-1091.127106,-2890.529701,8786.444587
22937.080086,306.281293,4383.651003,10547.562021
22937.082622,76.570323,-5091.926493,8269.594906
22937.085158,-1607.976787,7369.893608,11274.980091
22937.087694,2775.674216,-861.416136,8977.870395
22937.090230,535.992262,-6604.190376,7216.752962
22937.092766,-1033.699363,14720.644635,13514.662045
22937.095302,1741.974853,-8020.741355,7082.754896
22937.097838,-19.142581,-3177.668413,8231.309744
22937.100374,-2220.539373,14242.080115,13476.376883
22937.102910,4441.078746,-9724.431046,6546.762634
22937.105445,3120.240670,-10451.849117,6049.055533
22937.107981,-2316.252277,11389.835576,12557.533005
22937.110517,229.710970,-133.998066,9877.571693
22937.113053,880.558717,-7255.038123,6948.756830
22937.115589,-1014.556782,7733.602643,11274.980091
22937.118125,1454.836141,593.420005,9667.003304
22937.120661,1167.697429,-3235.096155,8346.165229
22937.123197,-344.566454,5340.780043,10604.989763
22937.125733,325.423874,0.000000,9188.438784
22937.128269,-248.853550,-57.427742,9092.725880
22937.130805,-95.712904,3043.670347,10375.278794
22937.133341,1454.836141,-593.420005,9150.153622
22937.135877,344.566454,0.000000,8709.874264
22937.138413,-2143.969050,3235.096155,10298.708470
22937.140949,2048.256146,1225.125171,9705.288466
22937.143485,-899.701298,-7867.600709,7523.034254
22937.146021,-2909.672282,12021.540742,12978.669782
22937.148557,1301.695494,-7886.743290,7523.034254
22937.151093,459.421939,-6278.766502,7599.604578
22937.153629,-2699.103893,15716.058837,14395.220762
22937.156164,2143.969050,-11944.970419,6163.911018
22937.158703,-861.416136,-1263.410333,8920.442653
22937.161242,-4383.651003,13418.949141,14165.509792
22937.163781,2833.101958,-13878.371080,5895.914886
22937.166320,-76.570323,248.853550,9092.725880
22937.168858,-1569.691626,11734.402030,12672.388490
22937.171397,172.283227,-153.140646,9973.284597
22937.173936,401.994197,-7925.028451,7063.612315
22937.176475,-2086.541307,6604.190376,11217.552349
22937.179013,-516.849682,-440.279358,9743.573627
22937.181552,421.136778,-4900.500685,8212.167163
22937.184091,-880.558717,3426.521963,10700.702667
22937.186630,-440.279358,-2048.256146,9341.579430
22937.189169,-95.712904,-555.134843,9188.438784
22937.191707,-1091.127106,1129.412267,10030.712339
22937.194246,325.423874,-229.710970,9552.147819
22937.196785,-1550.549045,-1397.408398,9360.722011
22937.199324,-2297.109696,4268.795518,10375.278794
22937.201863,2852.244539,2545.963246,9781.858789
22937.204401,306.281293,-8097.311678,7140.182638
22937.206940,-1014.556782,13610.374949,13036.097525
22937.209479,1397.408398,-4211.367776,8327.022648
22937.212018,746.560651,-6317.051664,7216.752962
22937.214556,-2699.103893,15907.484645,14146.367211
22937.217095,2335.394858,-8671.589102,7159.325219
22937.219634,1473.978722,-2641.676150,7925.028451
22937.222173,-2392.822600,14280.365277,13265.808494
22937.224712,2852.244539,-9379.864592,6853.043926
22937.227250,-440.279358,-1091.127106,8805.587168
22937.229789,-1301.695494,10872.985894,12806.386555
22937.232328,478.564520,2086.541307,10279.565890
22937.234867,1569.691626,-6527.620053,7101.897477
22937.237405,-363.709035,6546.762634,11045.269122
22937.239944,727.418070,1627.119368,9915.856854
22937.242483,1148.554848,-2852.244539,8135.596840
22937.245022,-1071.984525,5532.205851,10738.987829
22937.247561,-114.855485,-57.427742,9667.003304
22937.250099,1607.976787,-1473.978722,8843.872330
22937.252638,-267.996131,2718.246474,10088.140082
22937.255177,937.986459,2584.248408,9858.429112
22937.257716,1684.547110,-5034.498750,8059.026517
22937.260257,-3254.238736,3866.801322,10758.130410
22937.262798,669.990328,4039.084549,12672.388490
22937.265339,1435.693560,-11619.546546,6374.479406
22937.267880,-229.710970,-229.710970,9399.007173
22937.270421,-1971.685822,12002.398162,13284.951075
22937.272963,2641.676150,-14414.363342,5149.354235
22937.275504,-1665.404530,5283.352301,10758.130410
22937.278045,-3139.383251,8556.733618,12710.673651
22937.280586,2890.529701,-14892.927862,5455.635528
22937.283127,-1225.125171,5953.342629,10892.128475
22937.285668,-516.849682,6814.758765,11638.689126
22937.288210,2105.683888,-10662.417506,6221.338760
22937.290751,-1627.119368,3483.949706,10241.280728
22937.293292,-1167.697429,5436.492947,11600.403965
22937.295833,-248.853550,-2297.109696,9226.723946
22937.298374,555.134843,-4785.645200,8173.882002
22937.300915,-1435.693560,4077.369710,11026.126541
22937.303457,459.421939,-1933.400661,9169.296203
22937.305998,535.992262,-2909.672282,8422.735552
22937.308539,-1397.408398,3713.660675,10719.845248
22937.311080,-382.851616,76.570323,9724.431046
22937.313621,401.994197,-4460.221326,8231.309744
22937.316162,-2813.959378,5302.494882,11083.554283
22937.318704,2871.387120,2450.250342,9915.856854
22937.321245,957.129040,-10202.995566,6451.049730
22937.323786,-1129.412267,15333.207221,13495.519464
22937.326327,1052.841944,-4153.940034,8327.022648
22937.328868,2794.816797,-14758.929797,4862.215523
22937.331409,-1722.832272,8671.589102,11581.261384
22937.333951,-899.701298,6374.479406,11504.691061
22937.336492,4268.795518,-12442.677520,5398.207786
22937.339033,-1684.547110,11140.982026,11925.827838
22937.341574,-229.710970,3388.236802,10681.560086
22937.344115,1607.976787,-10317.851051,6336.194245
22937.346656,-1933.400661,8078.169098,11696.116869
22937.349198,306.281293,3598.805190,10624.132344
22937.351739,1741.974853,-6910.471669,7082.754896
22937.354280,-114.855485,5130.211654,10604.989763
22937.356821,421.136778,3924.229064,10566.704602
22937.359362,689.132909,-3330.809059,8748.159426
22937.361889,421.136778,-2105.683888,8729.016845
22937.364415,-842.273555,4996.213589,11026.126541
22937.366942,440.279358,-267.996131,9456.434915
22937.369469,2297.109696,-1703.689691,8499.305875
22937.371995,-1722.832272,2622.533570,10317.851051
22937.374522,593.420005,5417.350366,10777.272990
22937.377048,1454.836141,-11810.972354,6297.909083
22937.379575,-4019.941968,8250.452325,12117.253646
22937.382101,-76.570323,3407.379382,10777.272990
22937.384628,1933.400661,-16290.336261,4728.217458
22937.387155,-2488.535504,15256.636898,14031.511726
22937.389681,478.564520,-478.564520,9571.290400
22937.392208,2565.105827,-16290.336261,4919.643266
22937.394734,-2545.963246,2890.529701,10375.278794
22937.397261,-2813.959378,10815.558152,13265.808494
22937.399788,3311.666478,-13667.802691,5436.492947
22937.402314,-631.705166,3311.666478,9896.714274
22937.404841,-1741.974853,9322.436850,12710.673651
22937.407367,1205.982590,-8709.874264,7101.897477
22937.409894,-1416.550979,-421.136778,9207.581365
22937.412421,-1761.117434,5321.637462,11294.122672
22937.414947,95.712904,-5513.063270,8441.878133
22937.417474,363.709035,-1646.261949,9226.723946
22937.420000,-976.271621,4441.078746,10777.272990
22937.422527,-1110.269686,1320.838075,9896.714274
22937.425054,-191.425808,-2545.963246,8633.303941
22937.427580,-1550.549045,-918.843878,9667.003304
22937.430107,-1646.261949,5819.344563,11255.837510
22937.432633,4000.799387,-4345.365842,7925.028451
22937.435160,-823.130974,-2545.963246,8461.020714
22937.437686,95.712904,14758.929797,13265.808494
22937.440213,2660.818731,-13189.238171,5551.348432
22937.442740,-516.849682,3445.664544,10030.712339
22937.445266,-3177.668413,13610.374949,13744.373014
22937.447793,3407.379382,-15046.068509,5321.637462
22937.450319,-535.992262,6585.047795,10643.274925
22937.452846,-976.271621,9992.427178,12193.823970
22937.455373,1722.832272,-5187.639397,8154.739421
22937.457899,191.425808,-5972.485210,7503.891674
22937.460426,-1493.121302,11332.407834,12825.529136
22937.462957,1837.687757,-4019.941968,8518.448456
22937.465487,669.990328,-3388.236802,7963.313613
22937.468018,-669.990328,8977.870395,11791.829773
22937.470549,1722.832272,-2392.822600,8614.161360
22937.473080,1052.841944,-861.416136,8499.305875
22937.475610,-1875.972918,6604.190376,11198.409768
22937.478141,555.134843,-2565.105827,8958.727814
22937.480672,727.418070,-478.564520,9207.581365
22937.483203,1186.840010,4287.938099,10432.706536
22937.485733,-689.132909,-1531.406464,9054.440718
22937.488264,-899.701298,4000.799387,10260.423309
22937.490795,1110.269686,-4957.928427,8250.452325
22937.493326,-2947.957443,-574.277424,9781.858789
22937.495857,-650.847747,8403.592971,12212.966550
22937.498387,1454.836141,-13284.951075,5876.772306
22937.500918,-478.564520,6278.766502,11255.837510
22937.503449,-1110.269686,6699.903280,11428.120738
22937.505980,1856.830338,-13170.095590,5551.348432
22937.508510,-3981.656806,7369.893608,11734.402030
22937.511041,-1741.974853,3177.668413,11217.552349
22937.513572,2469.392923,-10758.130410,6374.479406
22937.516103,-1359.123237,6565.905214,11140.982026
22937.518634,-1493.121302,8441.878133,11964.113000
22937.521164,746.560651,-4326.223261,8595.018779
22937.523695,-976.271621,-2373.680019,8882.157491
22937.526226,-1761.117434,4249.652938,11045.269122
22937.528757,-708.275490,-4479.363907,8958.727814
22937.531287,1033.699363,-1071.984525,9360.722011
22937.533818,-95.712904,2622.533570,10183.852986
22937.536349,-306.281293,-1205.982590,9054.440718
22937.538880,-1071.984525,593.420005,9475.577496
22937.541410,-210.568389,-1397.408398,9437.292334
22937.543941,-2029.113565,1684.547110,10336.993632
22937.546472,2699.103893,3120.240670,9992.427178
22937.549003,3369.094221,-8135.596840,6814.758765
22937.551534,-555.134843,3828.516160,10088.140082
22937.554064,-1052.841944,10566.704602,12519.247843
22937.556595,2565.105827,-13342.378818,5321.637462
22937.559126,-1588.834206,7140.182638,11389.835576
22937.561657,-1110.269686,6623.332957,11696.116869
22937.564191,4555.934230,-11581.261384,5723.631659
22937.566725,-1320.838075,9360.722011,11389.835576
22937.569259,-612.562586,4843.072942,11006.983960
22937.571793,1378.265818,-9399.007173,6604.190376
22937.574327,-823.130974,5034.498750,10758.130410
22937.576861,325.423874,4058.227130,10853.843314
22937.579396,1244.267752,-4555.934230,7905.885870
22937.581930,1014.556782,-593.420005,8786.444587
22937.584464,172.283227,5321.637462,10394.421374
22937.586998,-1014.556782,-535.992262,9131.011042
22937.589532,-210.568389,784.845813,9609.575562
22937.592066,401.994197,1071.984525,9762.716208
22937.594601,1378.265818,-861.416136,9379.864592
22937.597135,-382.851616,3675.375514,10126.425243
22937.599669,2163.111630,-1780.260014,8748.159426
22937.602203,-3158.525832,-1550.549045,9207.581365
22937.604737,-784.845813,9533.005238,12232.109131
22937.607271,1167.697429,-15007.783347,5666.203917
22937.609805,-1014.556782,5972.485210,11313.265253
22937.612340,-3024.527766,7657.032320,14548.361408
22937.614874,2124.826469,-9188.438784,6853.043926
22937.617408,19.142581,-4843.072942,7523.034254
22937.619942,-5187.639397,15582.060771,14395.220762
22937.622476,2143.969050,-12729.816232,6489.334891
22937.625010,976.271621,-3522.234867,8250.452325
22937.627544,-1761.117434,12595.818166,13533.804626
22937.630079,746.560651,-6680.760699,7676.174901
22937.632613,-803.988394,-2852.244539,8059.026517
22937.635147,-1627.119368,6297.909083,11485.548480
22937.637681,38.285162,-3981.656806,8863.014910
22937.640215,-114.855485,-1627.119368,9341.579430
22937.642749,-114.855485,727.418070,10145.567824
22937.645283,-248.853550,-918.843878,9303.294269
22937.647818,-937.986459,957.129040,9571.290400
22937.650352,-1186.840010,1167.697429,9686.145885
22937.652886,535.992262,-3407.379382,8767.302006
22937.655420,-2545.963246,3617.947771,10892.128475
22937.657954,3062.812928,2297.109696,9934.999435
22937.660488,937.986459,-9609.575562,6565.905214
22937.663023,-1378.265818,15543.775610,13418.949141
22937.665560,1225.125171,-3962.514226,8212.167163
22937.668097,1167.697429,-7695.317482,6661.618118
22937.670635,-3196.810994,17190.037558,14490.933666
22937.673172,2220.539373,-8729.016845,7446.463931
22937.675709,1761.117434,-4594.219392,5187.639397
22937.678247,-1799.402595,11715.259450,12098.111066
22937.680784,-421.136778,4919.643266,11083.554283
22937.683321,1588.834206,-11657.831707,5761.916821
22937.685859,-1818.545176,8212.167163,11657.831707
22937.688396,95.712904,4517.649069,11198.409768
22937.690934,2316.252277,-8365.307810,6719.045861
22937.693471,-344.566454,5972.485210,10643.274925
22937.696008,497.707101,5895.914886,10777.272990
22937.698546,957.129040,-5915.057467,7293.323285
22937.701083,-957.129040,4287.938099,10470.991698
22937.703620,-516.849682,3962.514226,10834.700733
22937.706158,2316.252277,-6833.901346,7599.604578
22937.708695,-861.416136,-1895.115499,8767.302006
22937.711232,421.136778,9667.003304,11734.402030
22937.713770,-0.000000,-10585.847182,6719.045861
22937.716307,-2718.246474,6431.907149,11351.550414
22937.718845,-306.281293,995.414202,10356.136213
22937.721382,1493.121302,-12098.111066,6355.336826
22937.723919,-2182.254211,12768.101394,13399.806560
22937.726457,746.560651,-3598.805190,8518.448456
22937.728994,574.277424,-7063.612315,7082.754896
22937.731531,-4268.795518,12672.388490,13361.521398
22937.734069,899.701298,-7791.030386,7752.745224
22937.736606,899.701298,-5072.783912,7905.885870
22937.739144,-1665.404530,10356.136213,11045.269122
22937.741681,-784.845813,4555.934230,11045.269122
22937.744218,287.138712,-7618.747158,7235.895542
22937.746756,-2029.113565,3254.238736,10356.136213
22937.749293,-1339.980656,2067.398726,10547.562021
22937.751830,478.564520,-6891.329088,8173.882002
22937.754368,401.994197,2833.101958,10432.706536
22937.756905,-440.279358,765.703232,9858.429112
22937.759442,440.279358,-3024.527766,8346.165229
22937.761980,-2431.107762,3120.240670,10298.708470
22937.764517,1071.984525,823.130974,9820.143950
22937.767057,-516.849682,-6565.905214,8097.311678
22937.769597,-1014.556782,11523.833642,12519.247843
22937.772137,1607.976787,6221.338760,10930.413637
22937.774677,1627.119368,-12672.388490,5321.637462
22937.777216,-1512.263883,13533.804626,12787.243974
22937.779756,-306.281293,1339.980656,9934.999435
22937.782296,1990.828403,-11313.265253,6221.338760
22937.784836,-1990.828403,13610.374949,13323.236237
22937.787376,2277.967115,-1856.830338,9111.868461
22937.789916,2316.252277,-7503.891674,6623.332957
22937.792456,-2067.398726,12251.251712,12576.675586
22937.794995,287.138712,-2105.683888,9169.296203
22937.797535,784.845813,-5608.776174,7542.176835
22937.800075,-516.849682,7369.893608,11562.118803
22937.802615,1722.832272,-1014.556782,9245.866526
22937.805155,2182.254211,-2756.531635,8231.309744
22937.807695,-421.136778,4058.227130,10030.712339
22937.810235,-727.418070,2469.392923,9992.427178
22937.812774,593.420005,-2182.254211,8709.874264
22937.815314,267.996131,1091.127106,9934.999435
22937.817854,1014.556782,3579.662610,10375.278794
22937.820394,2143.969050,-4709.074877,8039.883936
22937.822934,-3522.234867,3349.951640,10298.708470
22937.825474,172.283227,5761.916821,11121.839445
22937.828014,76.570323,-14414.363342,5627.918755
22937.830553,-1780.260014,11504.691061,13093.525267
22937.833093,114.855485,-382.851616,9954.142016
22937.835633,2584.248408,-14452.648504,5398.207786
22937.838173,-1359.123237,3445.664544,10030.712339
22937.840713,-3445.664544,11313.265253,13112.667848
22937.843253,2718.246474,-15275.779478,5321.637462
22937.845793,-669.990328,4058.227130,10470.991698
22937.848332,-957.129040,8039.883936,12366.107197
22937.850872,1454.836141,-9590.432981,6738.188442
22937.853412,-1339.980656,2947.957443,9992.427178
22937.855952,-976.271621,4077.369710,10815.558152
22937.858492,114.855485,-6470.192310,7886.743290
22937.861032,-1263.410333,1914.258080,10490.134278
22937.863572,248.853550,1071.984525,10279.565890
22937.866111,727.418070,-5436.492947,8193.024582
22937.868654,-153.140646,95.712904,9073.583299
22937.871196,-2967.100024,3809.373579,10643.274925
22937.873739,1148.554848,-1359.123237,9111.868461
22937.876281,267.996131,-5072.783912,8346.165229
22937.878823,-1607.976787,11045.269122,12519.247843
22937.881366,3445.664544,-4689.932296,7944.171032
22937.883908,133.998066,-5053.641331,7408.178770
22937.886450,-1741.974853,16156.338195,13859.228499
22937.888992,1895.115499,-9762.716208,6278.766502
22937.891535,248.853550,-1914.258080,8499.305875
22937.894077,-2048.256146,13457.234302,13591.232368
22937.896619,4421.936165,-10738.987829,6527.620053
22937.899162,2909.672282,-9705.288466,6010.770371
22937.901704,-2431.107762,11370.692995,12308.679454
22937.904246,191.425808,1071.984525,10011.569758
22937.906789,1627.119368,-8250.452325,6795.616184
22937.909331,-631.705166,6814.758765,11313.265253
22937.911873,1014.556782,2756.531635,10394.421374
22937.914415,2373.680019,-4287.938099,7695.317482
22937.916958,-1320.838075,4938.785846,10317.851051
22937.919500,-1473.978722,3637.090352,10375.278794
22937.922042,1339.980656,-3617.947771,8135.596840
22937.924585,918.843878,861.416136,9858.429112
22937.927127,-229.710970,5513.063270,11198.409768
22937.929669,2890.529701,-4881.358104,10068.997501
22937.932211,-38.285162,-10987.841379,6336.194245
22937.934754,-3885.943902,12729.816232,13074.382686
22937.937296,497.707101,-4402.793584,8671.589102
22937.939838,1952.543242,-11638.689126,6163.911018
22937.942381,-3043.670347,16520.047230,14644.074312
22937.944923,1473.978722,-7561.319416,7561.319416
22937.947465,727.418070,-6910.471669,6987.041992
22937.949993,-5245.067139,15850.056902,14222.937534
22937.952521,1646.261949,-10183.852986,7082.754896
22937.955048,1359.123237,-5340.780043,7561.319416
22937.957576,-1205.982590,11753.544611,13189.238171
22937.960104,1129.412267,-6240.481341,8078.169098
22937.962632,191.425808,-7982.456194,7235.895542
22937.965159,-2565.105827,4843.072942,10796.415571
22937.967687,-1607.976787,306.281293,10126.425243
22937.970215,1588.834206,-6489.334891,7867.600709
22937.972743,229.710970,3751.945837,10777.272990
22937.975270,-478.564520,229.710970,9934.999435
22937.977798,-191.425808,-2641.676150,8422.735552
22937.980326,-2756.531635,1301.695494,9954.142016
22937.982854,-1627.119368,4307.080680,10872.985894
22937.985381,4115.654872,-5091.926493,7886.743290
22937.987909,-497.707101,-823.130974,9111.868461
22937.990437,478.564520,12500.105262,12748.958813
22937.992965,2029.113565,-12576.675586,5513.063270
22937.995492,1359.123237,-9284.151688,6125.625856
22937.998020,-2718.246474,16060.625291,13820.943338
22938.000548,1550.549045,-5302.494882,8327.022648
22938.003076,2565.105827,-7044.469734,7025.327154
22938.005603,-2354.537438,14395.220762,13418.949141
22938.008131,1990.828403,-5647.061336,7829.315547
22938.010659,-19.142581,-4096.512291,7733.602643
22938.013187,-1359.123237,10700.702667,12672.388490
22938.015714,1722.832272,-4651.647134,8422.735552
22938.018242,918.843878,-2067.398726,8441.878133
22938.020770,-440.279358,8805.587168,11734.402030
22938.023298,1167.697429,-2852.244539,8365.307810
22938.025825,363.709035,-478.564520,7752.745224
22938.028353,-133.998066,5455.635528,10509.276859
22938.030881,535.992262,114.855485,9839.286531
22938.033409,1914.258080,-669.990328,9150.153622
22938.035936,1033.699363,-344.566454,9418.149754
22938.038464,-3292.523898,1933.400661,10068.997501
22938.040992,344.566454,3139.383251,10260.423309
22938.043520,-421.136778,-11121.839445,6565.905214
22938.046047,-1531.406464,10509.276859,12863.814298
22938.048575,497.707101,-1856.830338,9265.009107
22938.051107,2450.250342,-11734.402030,6010.770371
22938.053639,-3330.809059,14280.365277,13476.376883
22938.056171,535.992262,-4307.080680,8518.448456
22938.058703,2699.103893,-14108.082050,5493.920690
22938.061234,-976.271621,4823.930362,10662.417506
22938.063766,-1033.699363,6967.899411,12136.396227
22938.066298,1416.550979,-9169.296203,6948.756830
22938.068830,-1282.552914,1761.117434,9724.431046
22938.071362,-1588.834206,4862.215523,11217.552349
22938.073894,267.996131,-5589.633594,8173.882002
22938.076425,440.279358,-1071.984525,9379.864592
22938.078957,-880.558717,3349.951640,10853.843314
22938.081489,-114.855485,-2411.965181,9226.723946
22938.084021,325.423874,-1512.263883,8709.874264
22938.086553,-2679.961312,1818.545176,10145.567824
22938.089085,-842.273555,4019.941968,11389.835576
22938.091617,3943.371645,-1990.828403,8843.872330
22938.094148,746.560651,-7369.893608,7350.751027
22938.096680,-995.414202,16883.756266,13993.226565
22938.099212,1665.404530,-8767.302006,6776.473603
22938.101744,133.998066,-3407.379382,7829.315547
22938.104276,-3330.809059,17668.602078,14510.076246
22938.106808,3292.523898,-11964.113000,6336.194245
22938.109339,746.560651,-861.416136,8690.731683
22938.111871,-2105.683888,14088.939469,13629.517530
22938.114403,3101.098090,-11428.120738,6106.483275
22938.116935,-976.271621,1244.267752,9150.153622
22938.119467,-1397.408398,10585.847182,12748.958813
22938.121999,1148.554848,593.420005,9915.856854
22938.124530,2143.969050,-6508.477472,7197.610381
22938.127062,-937.986459,9054.440718,11676.974288
22938.129594,-133.998066,325.423874,9475.577496
22938.132126,459.421939,-4192.225195,7791.030386
22938.134658,-765.703232,7676.174901,11140.982026
22938.137190,976.271621,-2124.826469,9150.153622
22938.139722,1110.269686,-382.851616,9226.723946
22938.142253,1110.269686,2354.537438,10202.995566
22938.144785,-2775.674216,-2507.678085,8920.442653
22938.147317,-497.707101,6259.623922,11006.983960
22938.149849,-19.142581,-10662.417506,6738.188442
22938.152384,861.416136,-5857.629725,8039.883936
22938.154920,-2029.113565,12308.679454,13552.947206
22938.157455,1607.976787,-9360.722011,7025.327154
22938.159990,-363.709035,-1607.976787,8709.874264
22938.162526,-4153.940034,12002.398162,13208.380752
22938.165061,2220.539373,-11600.403965,6431.907149
22938.167596,287.138712,-631.705166,9035.298138
22938.170131,-1780.260014,9647.860723,12940.384621
22938.172667,669.990328,-6412.764568,7848.458128
22938.175202,-899.701298,-2086.541307,8633.303941
22938.177737,-2067.398726,5072.783912,11255.837510
22938.180273,-76.570323,-3522.234867,8920.442653
22938.182808,1416.550979,-1856.830338,8939.585234
22938.185343,1014.556782,-172.283227,9647.860723
22938.187879,-516.849682,861.416136,10011.569758
22938.190414,-2220.539373,344.566454,9552.147819
22938.192949,727.418070,-1493.121302,8690.731683
22938.195485,-1473.978722,-1244.267752,9494.720077
22938.198020,382.851616,9781.858789,12059.825904
22938.200555,3656.232933,-10068.997501,6393.621987
22938.203091,-976.271621,4709.074877,10394.421374
22938.205626,-1588.834206,11428.120738,12672.388490
22938.208161,2967.100024,-14510.076246,4785.645200
22938.210697,-1263.410333,7867.600709,11217.552349
22938.213232,-1320.838075,7542.176835,11887.542677
22938.215767,3847.658741,-7389.036189,7657.032320
22938.218302,995.414202,-3637.090352,7771.887805
22938.220838,-2220.539373,13036.097525,13227.523333
22938.223373,937.986459,-6240.481341,7752.745224
22938.225908,746.560651,-2909.672282,8173.882002
22938.228444,-535.992262,9303.294269,12021.540742
22938.230979,2660.818731,-3043.670347,8403.592971
22938.233514,421.136778,-1339.980656,8652.446522
22938.236050,-1837.687757,7274.180704,11370.692995
22938.238585,823.130974,-2124.826469,8499.305875
22938.241120,344.566454,-1244.267752,8824.729749
22938.243656,1397.408398,6527.620053,11121.839445
22938.246191,746.560651,-5857.629725,8269.594906
22938.248726,-2641.676150,19.142581,9437.292334
22938.251262,19.142581,4709.074877,10719.845248
22938.253800,-1033.699363,-10585.847182,6814.758765
22938.256339,-1186.840010,10183.852986,12653.245909
22938.258877,803.988394,-3503.092286,8843.872330
22938.261416,2124.826469,-9552.147819,6738.188442
22938.263955,-3254.238736,13859.228499,13418.949141
22938.266493,1014.556782,-6604.190376,7771.887805
22938.269032,76.570323,-6202.196179,7523.034254
22938.271571,-3407.379382,13150.953010,13514.662045
22938.274109,1856.830338,-7657.032320,7618.747158
22938.276648,765.703232,-5111.069074,7657.032320
22938.279186,-1990.828403,10279.565890,10738.987829
22938.281725,-1588.834206,4383.651003,11255.837510
22938.284264,593.420005,-9724.431046,6929.614250
22938.286802,-669.990328,4192.225195,10719.845248
22938.289341,-497.707101,2622.533570,10643.274925
22938.291880,1703.689691,-7312.465866,7618.747158
22938.294418,-1761.117434,4862.215523,10758.130410
22938.296957,-325.423874,535.992262,9705.288466
22938.299495,-1741.974853,-4823.930362,8212.167163
22938.302034,1780.260014,8441.878133,11562.118803
22938.304573,1741.974853,-7810.172966,7503.891674
22938.307111,-57.427742,7925.028451,11370.692995
22938.309650,-689.132909,3330.809059,10202.995566
22938.312188,1856.830338,-9245.866526,6527.620053
22938.314727,-153.140646,1856.830338,9647.860723
22938.317266,-1282.552914,9322.436850,12270.394293
22938.319804,4058.227130,-10279.565890,6489.334891
22938.322343,-1014.556782,5417.350366,10585.847182
22938.324882,-1129.412267,7101.897477,11619.546546
22938.327420,918.843878,-8154.739421,6967.899411
22938.329959,-401.994197,3675.375514,10145.567824
22938.332497,497.707101,4862.215523,10949.556218
22938.335036,2565.105827,-4134.797453,7982.456194
22938.337575,-765.703232,3579.662610,10202.995566
22938.340113,-899.701298,3043.670347,10317.851051
22938.342652,401.994197,-2450.250342,8901.300072
22938.345191,765.703232,-1091.127106,8863.014910
22938.347729,765.703232,5551.348432,10930.413637
22938.350268,2297.109696,-4536.791650,8441.878133
22938.352806,-3254.238736,1569.691626,10049.854920
22938.355348,-229.710970,5876.772306,11064.411702
22938.357889,-363.709035,-13131.810429,6010.770371
22938.360430,-1435.693560,10509.276859,12748.958813
22938.362972,497.707101,-976.271621,9647.860723
22938.365513,2756.531635,-12289.536874,5800.201982
22938.368054,-3617.947771,13820.943338,13304.093656
22938.370595,344.566454,-3369.094221,8920.442653
22938.373137,803.988394,-9456.434915,6623.332957
22938.375678,-1416.550979,4728.217458,10662.417506
22938.378219,-784.845813,7484.749093,12212.966550
22938.380761,2220.539373,-10738.987829,6451.049730
22938.383302,-1531.406464,2354.537438,10030.712339
22938.385843,-1952.543242,5972.485210,11791.829773
22938.388384,1071.984525,-9379.864592,7159.325219
22938.390926,-401.994197,2641.676150,10145.567824
22938.393467,-1091.127106,4268.795518,11140.982026
22938.396008,1952.543242,-7389.036189,7523.034254
22938.398550,-2105.683888,2220.539373,10068.997501
22938.401091,-76.570323,4804.787781,10796.415571
22938.403632,-76.570323,-9724.431046,7006.184573
22938.406173,-478.564520,11696.116869,9839.286531
22938.408715,1435.693560,9207.581365,11887.542677
22938.411256,1780.260014,-12346.964616,5570.491013
22938.413797,-1550.549045,10949.556218,12021.540742
22938.416339,-995.414202,3617.947771,10490.134278
22938.418880,2699.103893,-11102.696864,6049.055533
22938.421421,-1856.830338,11657.831707,12653.245909
22938.423963,2086.541307,-76.570323,9686.145885
22938.426504,2565.105827,-8288.737486,6699.903280
22938.429045,-1761.117434,10796.415571,12289.536874
22938.431586,57.427742,-1167.697429,9284.151688
22938.434128,937.986459,-4747.360038,7752.745224
22938.436669,-172.283227,8078.169098,11408.978157
22938.439210,76.570323,4900.500685,10719.845248
22938.441752,880.558717,-4383.651003,8116.454259
22938.444293,-0.000000,4000.799387,10126.425243
22938.446834,-593.420005,2469.392923,9973.284597
22938.449375,2354.537438,-2182.254211,8556.733618
22938.451917,-1282.552914,1512.263883,10126.425243
22938.454458,1416.550979,5225.924558,10853.843314
22938.457001,287.138712,-10241.280728,6795.616184
22938.459545,-3751.945837,8556.733618,11906.685258
22938.462088,153.140646,-210.568389,9934.999435
22938.464632,1780.260014,-12653.245909,5915.057467
22938.467175,-2373.680019,13763.515595,13897.513661
22938.469719,612.562586,-3407.379382,8748.159426
22938.472262,2182.254211,-14395.220762,5245.067139
22938.474805,-3349.951640,5838.487144,10949.556218
22938.477349,-1837.687757,7255.038123,12040.683323
22938.479892,2909.672282,-13342.378818,5608.776174
22938.482436,-1244.267752,5455.635528,10968.698798
22938.484979,-1684.547110,6106.483275,11734.402030
22938.487522,650.847747,-10279.565890,6719.045861
22938.490066,-2928.814862,2833.101958,10375.278794
22938.492609,-1033.699363,5091.926493,11332.407834
22938.495153,1971.685822,-8518.448456,7101.897477
22938.497696,76.570323,2316.252277,10260.423309
22938.500240,-2067.398726,5398.207786,11313.265253
22938.502783,976.271621,-1684.547110,8977.870395
22938.505326,-1282.552914,-7235.895542,7484.749093
22938.507870,-669.990328,14242.080115,13265.808494
22938.510413,3617.947771,-7982.456194,7255.038123
22938.512957,229.710970,-899.701298,8595.018779
22938.515500,-1990.828403,15275.779478,13744.373014
22938.518044,2699.103893,-12748.958813,5513.063270
22938.520587,-535.992262,2890.529701,9839.286531
22938.523130,-1627.119368,11274.980091,12882.956878
22938.525674,4268.795518,-12902.099459,5761.916821
22938.528217,-1263.410333,6393.621987,10815.558152
22938.530761,-1110.269686,8384.450390,12136.396227
22938.533304,2105.683888,-11064.411702,5991.627790
22938.535847,1263.410333,-6087.340694,7274.180704
22938.538391,-631.705166,11772.687192,12538.390424
22938.540934,2239.681954,-2450.250342,8748.159426
22938.543478,612.562586,-4441.078746,7905.885870
22938.546021,-1646.261949,9705.288466,12059.825904
22938.548565,114.855485,-2009.970984,8767.302006
22938.551108,2469.392923,-3369.094221,7944.171032
22938.553651,-2163.111630,7121.040058,11696.116869
22938.556195,2603.390989,708.275490,9686.145885
22938.558740,-478.564520,-10528.419440,6738.188442
22938.561286,-4077.369710,13763.515595,13399.806560
22938.563831,823.130974,-6872.186507,7905.885870
22938.566377,2469.392923,-17783.457563,4632.504554
22938.568923,-1588.834206,9111.868461,12251.251712
22938.571468,-1359.123237,6853.043926,11696.116869
22938.574014,2277.967115,-15907.484645,4747.360038
22938.576559,-4498.506488,11504.691061,12614.960747
22938.579105,-918.843878,2163.111630,10643.274925
22938.581650,2641.676150,-13189.238171,5493.920690
22938.584196,-1607.976787,10126.425243,12538.390424
22938.586741,-574.277424,1282.552914,10451.849117
22938.589287,153.140646,-10126.425243,6719.045861
22938.591833,-2986.242605,6910.471669,11638.689126
22938.594378,-267.996131,842.273555,9992.427178
22938.596924,1473.978722,-7178.467800,7446.463931
22938.599469,1091.127106,-401.994197,9303.294269
22938.602015,-2641.676150,4115.654872,11026.126541
22938.604560,957.129040,-1837.687757,8920.442653
22938.607106,-401.994197,-5283.352301,8020.741355
22938.609651,-1225.125171,11600.403965,12576.675586
22938.612197,3503.092286,-4345.365842,8173.882002
22938.614742,516.849682,-4919.643266,7427.321350
22938.617288,-1837.687757,16118.053034,13820.943338
22938.619834,1875.972918,-8939.585234,6699.903280
22938.622379,727.418070,-2718.246474,8212.167163
22938.624925,-2354.537438,13744.373014,13610.374949
22938.627470,4019.941968,-9801.001370,6814.758765
22938.630016,3158.525832,-10049.854920,6163.911018
22938.632561,-2584.248408,10585.847182,12155.538808
22938.635107,267.996131,1225.125171,9992.427178
22938.637652,1665.404530,-7523.034254,6795.616184
22938.640198,-689.132909,9322.436850,11696.116869
22938.642744,957.129040,1435.693560,9877.571693
22938.645289,1129.412267,-5608.776174,7618.747158
22938.647835,-535.992262,7771.887805,11236.694930
22938.650380,-612.562586,-497.707101,9284.151688
22938.652926,2469.392923,-1359.123237,8461.020714
22938.655471,-708.275490,1473.978722,10107.282662
22938.658017,-727.418070,4938.785846,10930.413637
22938.660564,1493.121302,-7752.745224,7408.178770
22938.663111,-1091.127106,-10585.847182,6604.190376
22938.665658,-2220.539373,13055.240106,13514.662045
22938.668205,1052.841944,-5474.778109,8384.450390
22938.670753,2431.107762,-10451.849117,6374.479406
22938.673300,-3311.666478,15352.349802,13974.083984
22938.675847,1129.412267,-6546.762634,7886.743290
22938.678394,172.283227,-6757.331022,7274.180704
22938.680941,-3828.516160,13629.517530,13706.087853
22938.683488,1301.695494,-7829.315547,7599.604578
22938.686035,153.140646,-4536.791650,7829.315547
22938.688583,-2067.398726,9934.999435,12538.390424
22938.691130,593.420005,-7235.895542,7963.313613
22938.693677,1512.263883,-2775.674216,7178.467800
22938.696224,-1512.263883,5379.065205,10911.271056
22938.698771,-325.423874,191.425808,9992.427178
22938.701318,248.853550,-4345.365842,8307.880067
22938.703865,-803.988394,2737.389054,10413.563955
22938.706413,-2105.683888,1052.841944,9877.571693
22938.708960,3062.812928,-459.421939,8939.585234
22938.711507,-19.142581,-4115.654872,8288.737486
22938.714054,153.140646,12308.679454,12787.243974
22938.716601,1186.840010,-5551.348432,7637.889739
22938.719148,421.136778,-2488.535504,8193.024582
22938.721696,-2871.387120,14088.939469,13495.519464
22938.724243,2201.396792,-8173.882002,7216.752962
22938.726790,3254.238736,-10834.700733,6221.338760
22938.729337,-1799.402595,10202.995566,12002.398162
22938.731884,363.709035,2258.824534,10317.851051
22938.734431,1627.119368,-7944.171032,6872.186507
22938.736978,-1244.267752,7331.608446,11332.407834
22938.739526,995.414202,3120.240670,10164.710405
22938.742073,1244.267752,-5493.920690,7446.463931
22938.744620,-1301.695494,6202.196179,10949.556218
22938.747167,593.420005,1741.974853,9915.856854
22938.749714,535.992262,-3445.664544,8231.309744
22938.752261,803.988394,5474.778109,10604.989763
22938.754808,-1282.552914,-746.560651,9475.577496
22938.757356,-267.996131,1569.691626,10241.280728
22938.759903,823.130974,-5053.641331,8193.024582
22938.762434,-2986.242605,229.710970,9781.858789
22938.764966,-976.271621,8001.598774,12174.681389
22938.767498,1435.693560,-13246.665914,6010.770371
22938.770030,-803.988394,4632.504554,11121.839445
22938.772562,-1799.402595,7714.460062,11983.255581
22938.775093,2220.539373,-13189.238171,5627.918755
22938.777625,-3541.377448,7523.034254,11523.833642
22938.780157,-1244.267752,4268.795518,11083.554283
22938.782689,2258.824534,-12174.681389,6010.770371
22938.785221,-1703.689691,7618.747158,11638.689126
22938.787753,-631.705166,2411.965181,10624.132344
22938.790284,803.988394,-8537.591037,7599.604578
22938.792816,-708.275490,-918.843878,9226.723946
22938.795348,-1741.974853,7025.327154,11542.976222
22938.797880,976.271621,-7848.458128,7484.749093
22938.800412,-727.418070,2603.390989,10241.280728
22938.802943,-995.414202,2354.537438,10547.562021
22938.805475,-861.416136,-4230.510357,8173.882002
22938.808007,2048.256146,3579.662610,10068.997501
22938.810539,-229.710970,-3292.523898,8614.161360
22938.813071,1244.267752,8116.454259,11351.550414
22938.815602,612.562586,-3885.943902,7982.456194
22938.818134,-0.000000,287.138712,9265.009107
22938.820666,-2105.683888,10509.276859,11734.402030
22938.823198,133.998066,823.130974,9915.856854
22938.825730,2411.965181,-7580.461997,7140.182638
22938.828261,-1780.260014,9437.292334,11849.257515
22938.830793,918.843878,-172.283227,9513.862658
22938.833325,1091.127106,-5168.496816,7676.174901
22938.835857,-861.416136,7006.184573,11274.980091
22938.838389,1263.410333,918.843878,9571.290400
22938.840920,593.420005,-3062.812928,8135.596840
22938.843452,-1301.695494,5915.057467,10892.128475
22938.845984,1301.695494,-114.855485,9341.579430
22938.848516,57.427742,-1875.972918,8767.302006
22938.851048,957.129040,6336.194245,10777.272990
22938.853579,95.712904,-1761.117434,9265.009107
22938.856111,-1435.693560,1493.121302,10049.854920
22938.858643,344.566454,-382.851616,9494.720077
22938.861175,-2048.256146,-5704.489078,8193.024582
22938.863710,-1359.123237,10202.995566,12557.533005
22938.866246,1071.984525,-9188.438784,7082.754896
22938.868781,516.849682,-2545.963246,8882.157491
22938.871316,-2813.959378,11523.833642,12997.812363
22938.873852,1722.832272,-10566.704602,6585.047795
22938.876387,-1780.260014,1550.549045,9762.716208
22938.878923,-2526.820666,8575.876198,12442.677520
22938.881458,2239.681954,-11255.837510,6412.764568
22938.883993,229.710970,-6202.196179,7369.893608
22938.886529,-2086.541307,9226.723946,12232.109131
22938.889064,1148.554848,-5742.774240,8461.020714
22938.891600,114.855485,-4153.940034,8422.735552
22938.894135,-2526.820666,9054.440718,12174.681389
22938.896670,1799.402595,-6795.616184,7752.745224
22938.899206,-1091.127106,-1818.545176,8997.012976
22938.901741,-401.994197,7657.032320,11657.831707
22938.904277,-631.705166,-9169.296203,7197.610381
22938.906812,401.994197,8059.026517,11121.839445
22938.909347,1282.552914,-2029.113565,9111.868461
22938.911883,459.421939,248.853550,9169.296203
22938.914418,-1052.841944,8384.450390,11542.976222
22938.916953,306.281293,-1378.265818,8843.872330
22938.919489,1588.834206,-4555.934230,7867.600709
22938.922024,-1722.832272,9360.722011,12212.966550
22938.924560,2526.820666,-3924.229064,8518.448456
22938.927095,842.273555,-1780.260014,8537.591037
22938.929630,-1569.691626,8059.026517,11638.689126
22938.932166,1052.841944,-3560.520029,8403.592971
22938.934701,459.421939,-612.562586,8863.014910
22938.937237,-76.570323,6680.760699,11102.696864
22938.939772,1359.123237,-2756.531635,8518.448456
22938.942307,-95.712904,976.271621,9533.005238
22938.944843,-19.142581,5532.205851,10777.272990
22938.947378,1052.841944,-4555.934230,9054.440718
22938.949914,-957.129040,-880.558717,9111.868461
22938.952449,1205.982590,6106.483275,11006.983960
22938.954984,-593.420005,-8748.159426,7599.604578
22938.957520,-2220.539373,8288.737486,11791.829773
22938.960055,76.570323,-4517.649069,8461.020714
22938.962591,899.701298,-7025.327154,7446.463931
22938.965129,-2354.537438,12232.109131,13476.376883
22938.967667,1646.261949,-8633.303941,7331.608446
22938.970206,267.996131,-2756.531635,8499.305875
22938.972744,-3292.523898,11657.831707,12902.099459
22938.975282,1971.685822,-10260.423309,6795.616184
22938.977821,-1110.269686,133.998066,9360.722011
22938.980359,-1780.260014,9245.866526,12155.538808
22938.982897,-57.427742,-1684.547110,9341.579430
22938.985436,-382.851616,-7733.602643,7580.461997
22938.987974,-2354.537438,8729.016845,12117.253646
22938.990512,880.558717,-3694.518094,8671.589102
22938.993050,133.998066,-5398.207786,7944.171032
22938.995589,-1971.685822,9667.003304,12232.109131
22938.998127,574.277424,-6948.756830,8039.883936
22939.000665,-1473.978722,-287.138712,9188.438784
22939.003204,1493.121302,7523.034254,11294.122672
22939.005742,957.129040,-9839.286531,6699.903280
22939.008280,440.279358,11581.261384,12212.966550
22939.010819,535.992262,-1761.117434,8824.729749
22939.013357,2354.537438,-9954.142016,6106.483275
22939.015895,-1397.408398,7427.321350,11160.124606
22939.018434,-669.990328,4785.645200,11045.269122
22939.020972,2890.529701,-9667.003304,6623.332957
22939.023510,-1186.840010,8154.739421,11447.263318
22939.026049,535.992262,2354.537438,10336.993632
22939.028587,1263.410333,-5685.346498,7561.319416
22939.031125,-516.849682,6068.198114,11026.126541
22939.033664,727.418070,1914.258080,9743.573627
22939.036202,784.845813,-3598.805190,8097.311678
22939.038740,-823.130974,5513.063270,10719.845248
22939.041279,1378.265818,1416.550979,9724.431046
22939.043817,1339.980656,-3828.516160,8078.169098
22939.046355,-1110.269686,3579.662610,10222.138147
22939.048894,1359.123237,2526.820666,10298.708470
22939.051432,-1339.980656,-7350.751027,7886.743290
22939.053970,-1416.550979,10336.993632,12346.964616
22939.056508,708.275490,-10202.995566,6929.614250
22939.059047,76.570323,-1071.984525,9265.009107
22939.061585,-2029.113565,10585.847182,12978.669782
22939.064123,2392.822600,-13572.089787,5685.346498
22939.066665,-976.271621,3560.520029,10298.708470
22939.069206,-2009.970984,9245.866526,12385.249778
22939.071747,2163.111630,-12576.675586,6010.770371
22939.074288,-2316.252277,5532.205851,10949.556218
22939.076829,-1569.691626,10336.993632,12691.531070
22939.079370,516.849682,-6106.483275,7982.456194
22939.081912,-650.847747,-3885.943902,8690.731683
22939.084453,-1646.261949,8307.880067,12289.536874
22939.086994,1454.836141,-7025.327154,7771.887805
22939.089535,-842.273555,-1703.689691,8977.870395
22939.092076,-1933.400661,8595.018779,12117.253646
22939.094617,1263.410333,-9073.583299,7312.465866
22939.097158,-1818.545176,2335.394858,10049.854920
22939.099700,1780.260014,7465.606512,11447.263318
22939.102241,1493.121302,-12366.107197,5876.772306
22939.104782,-459.421939,13935.798822,12844.671717
22939.107323,-1569.691626,12155.538808,12806.386555
22939.109864,3005.385186,-12519.247843,5474.778109
22939.112405,-1205.982590,6661.618118,10872.985894
22939.114947,-1167.697429,7695.317482,11925.827838
22939.117488,3235.096155,-11964.113000,6068.198114
22939.120029,-1263.410333,8020.741355,11236.694930
22939.122570,-38.285162,4039.084549,10911.271056
22939.125111,1397.408398,-6948.756830,7197.610381
22939.127652,-421.136778,5934.200048,10892.128475
22939.130194,191.425808,2756.531635,10126.425243
22939.132735,823.130974,-3962.514226,7925.028451
22939.135276,-440.279358,5111.069074,10585.847182
22939.137817,650.847747,2354.537438,9973.284597
22939.140358,1875.972918,-2258.824534,8652.446522
22939.142899,-1225.125171,325.423874,9379.864592
22939.145440,650.847747,6336.194245,11102.696864
22939.147982,287.138712,-10317.851051,7025.327154
22939.150523,-3062.812928,7657.032320,11734.402030
22939.153064,153.140646,-976.271621,9609.575562
22939.155605,1339.980656,-11045.269122,6278.766502
22939.158146,-2756.531635,13342.378818,13725.230434
22939.160687,535.992262,-4785.645200,8556.733618
22939.163229,1205.982590,-8135.596840,6872.186507
22939.165770,-3656.232933,13284.951075,13361.521398
22939.168313,1282.552914,-6929.614250,7944.171032
22939.170857,2067.398726,-11485.548480,6278.766502
22939.173400,-1378.265818,5857.629725,11121.839445
22939.175944,-1225.125171,2277.967115,10509.276859
22939.178487,803.988394,-8805.587168,7255.038123
22939.181031,-1684.547110,5474.778109,11217.552349
22939.183574,-516.849682,689.132909,10068.997501
22939.186118,1167.697429,-6202.196179,7676.174901
22939.188661,-2258.824534,4843.072942,11045.269122
22939.191205,995.414202,899.701298,9992.427178
22939.193748,-114.855485,-8078.169098,7331.608446
22939.196292,-1588.834206,12940.384621,12672.388490
22939.198835,3215.953574,-5111.069074,7963.313613
22939.201379,267.996131,-3445.664544,7886.743290
22939.203922,-1569.691626,12672.388490,12595.818166
22939.206466,-612.562586,3101.098090,10375.278794
22939.209009,3177.668413,-11581.261384,5723.631659
22939.211552,-2048.256146,11772.687192,12653.245909
22939.214096,1607.976787,172.283227,9858.429112
22939.216639,1646.261949,-7465.606512,6853.043926
22939.219183,-1320.838075,9226.723946,11810.972354
22939.221726,784.845813,-708.275490,9322.436850
22939.224270,1416.550979,-2660.818731,8307.880067
22939.226813,-133.998066,5953.342629,10777.272990
22939.229357,823.130974,-497.707101,9131.011042
22939.231900,765.703232,478.564520,9073.583299
22939.234444,421.136778,2029.113565,9609.575562
22939.236987,57.427742,3369.094221,10145.567824
22939.239531,1320.838075,-2220.539373,8748.159426
22939.242074,-2718.246474,459.421939,9954.142016
22939.244618,631.705166,4766.502619,11006.983960
22939.247161,-344.566454,-11887.542677,6489.334891
22939.249705,-1607.976787,8633.303941,12098.111066
22939.252248,-172.283227,306.281293,9954.142016
22939.254792,2469.392923,-11830.114934,6049.055533
22939.257335,-2660.818731,11332.407834,12787.243974
22939.259879,-153.140646,-631.705166,9667.003304
22939.262422,1110.269686,-8767.302006,6776.473603
22939.264966,-2565.105827,9839.286531,12461.820101
22939.267509,-746.560651,6183.053598,11542.976222
22939.270054,497.707101,-7905.885870,7446.463931
22939.272600,-803.988394,2009.970984,10126.425243
22939.275145,-746.560651,2967.100024,10758.130410
22939.277690,784.845813,-6106.483275,7944.171032
22939.280235,-1052.841944,1952.543242,10049.854920
22939.282781,-1205.982590,2737.389054,10451.849117
22939.285326,1378.265818,-5474.778109,8078.169098
22939.287871,-2431.107762,1703.689691,10107.282662
22939.290416,1301.695494,7733.602643,11408.978157
22939.292962,2258.824534,-11504.691061,6049.055533
22939.295507,-1129.412267,11638.689126,12423.534939
22939.298052,-325.423874,4326.223261,13820.943338
22939.300597,2852.244539,-11045.269122,5972.485210
22939.303142,344.566454,344.566454,9111.868461
22939.305688,-2373.680019,12538.390424,13304.093656
22939.308233,3579.662610,-10145.567824,6642.475538
22939.310778,-1052.841944,1875.972918,9647.860723
22939.313323,-555.134843,9628.718142,12251.251712
22939.315869,1741.974853,-8307.880067,7006.184573
22939.318414,-95.712904,3464.807125,10011.569758
22939.320959,-421.136778,6967.899411,11351.550414
22939.323504,1684.547110,-6585.047795,7235.895542
22939.326050,191.425808,5053.641331,10432.706536
22939.328595,-708.275490,3139.383251,10490.134278
22939.331140,1167.697429,57.427742,9150.153622
22939.333685,1378.265818,-4153.940034,8212.167163
22939.336231,-3656.232933,6049.055533,11504.691061
22939.338776,1569.691626,306.281293,9915.856854
22939.341321,-746.560651,-12251.251712,6278.766502
22939.343866,-2258.824534,13457.234302,13629.517530
22939.346412,497.707101,-4632.504554,8499.305875
22939.348957,2277.967115,-10738.987829,6202.196179
22939.351502,-3617.947771,14490.933666,13897.513661
22939.354047,957.129040,-4823.930362,8441.878133
22939.356593,535.992262,-7331.608446,7140.182638
22939.359138,-2641.676150,11830.114934,13074.382686
22939.361683,784.845813,-5723.631659,8288.737486
22939.364228,401.994197,-9379.864592,6967.899411
22939.366773,-1148.554848,4785.645200,10930.413637
22939.369319,-325.423874,1512.263883,10432.706536
22939.371866,765.703232,-7006.184573,7771.887805
22939.374413,-937.986459,4096.512291,10700.702667
22939.376960,-1052.841944,516.849682,9896.714274
22939.379507,1531.406464,-4555.934230,8193.024582
22939.382054,-2239.681954,1684.547110,10145.567824
22939.384601,631.705166,7503.891674,11198.409768
22939.387148,2679.961312,-9820.143950,6527.620053
22939.389695,-1033.699363,8575.876198,11523.833642
22939.392242,-459.421939,6757.331022,11313.265253
22939.394789,1914.258080,-7733.602643,6987.041992
22939.397336,1205.982590,-2909.672282,8078.169098
22939.399884,-2163.111630,12672.388490,13342.378818
22939.402431,3101.098090,-7063.612315,7695.317482
22939.404978,-38.285162,-1684.547110,8690.731683
22939.407525,-1071.984525,9992.427178,12193.823970
22939.410072,1646.261949,-5359.922624,8001.598774
22939.412619,172.283227,19.142581,9054.440718
22939.415166,-784.845813,8556.733618,11810.972354
22939.417713,1933.400661,-4804.787781,7771.887805
22939.420260,555.134843,1761.117434,9571.290400
22939.422807,-1052.841944,5302.494882,11026.126541
22939.425354,1569.691626,-2105.683888,8537.591037
22939.427901,2584.248408,-3656.232933,8173.882002
22939.430448,-2928.814862,172.283227,9934.999435
22939.432995,-689.132909,7810.172966,11887.542677
22939.435543,1301.695494,-13954.941403,5704.489078
22939.438090,-1110.269686,4058.227130,10700.702667
22939.440637,-1454.836141,8595.018779,12346.964616
22939.443184,2756.531635,-15180.066574,5091.926493
22939.445731,-1550.549045,6661.618118,11274.980091
22939.448278,-1856.830338,7503.891674,12021.540742
22939.450825,2086.541307,-13112.667848,5761.916821
22939.453372,-2201.396792,6948.756830,11217.552349
22939.455919,-459.421939,3349.951640,10949.556218
22939.458466,306.281293,-9284.151688,7944.171032
22939.461013,-325.423874,-1646.261949,9073.583299
22939.463560,-1646.261949,5876.772306,11523.833642
22939.466107,382.851616,-7006.184573,8001.598774
22939.468654,-535.992262,1607.976787,9877.571693
22939.471202,-1856.830338,2124.826469,10604.989763
22939.473750,593.420005,-1397.408398,9054.440718
22939.476298,2124.826469,-2335.394858,8633.303941
22939.478847,-1588.834206,5225.924558,10796.415571
22939.481395,2392.822600,3426.521963,10164.710405
22939.483943,1301.695494,-9111.868461,6393.621987
22939.486492,-1014.556782,11887.542677,12595.818166
22939.489040,-401.994197,1378.265818,9839.286531
22939.491588,2794.816797,-9609.575562,6623.332957
22939.494137,229.710970,287.138712,9169.296203
22939.496685,-1454.836141,9169.296203,12193.823970
22939.499233,2775.674216,-7025.327154,7503.891674
22939.501782,-631.705166,1014.556782,9341.579430
22939.504330,38.285162,7484.749093,11504.691061
22939.506878,1722.832272,-5379.065205,7695.317482
22939.509427,76.570323,2163.111630,9571.290400
22939.511975,-38.285162,6987.041992,11160.124606
22939.514523,1225.125171,-4747.360038,8020.741355
22939.517072,1110.269686,2641.676150,9801.001370
22939.519620,-1895.115499,3292.523898,10490.134278
22939.522168,1531.406464,191.425808,10700.702667
22939.524717,2258.824534,-6527.620053,7829.315547
22939.527265,-2699.103893,-1933.400661,9303.294269
22939.529813,-1531.406464,10700.702667,12997.812363
22939.532362,1301.695494,-12921.242040,5876.772306
22939.534910,-229.710970,1167.697429,9762.716208
22939.537458,-2986.242605,11102.696864,13112.667848
22939.540007,2411.965181,-12500.105262,5934.200048
22939.542555,-2335.394858,3043.670347,10222.138147
22939.545104,-1607.976787,7886.743290,12232.109131
22939.547652,1454.836141,-11332.407834,6355.336826
22939.550200,-1473.978722,3962.514226,10470.991698
22939.552749,-650.847747,3215.953574,10758.130410
22939.555297,918.843878,-6259.623922,8059.026517
22939.557845,-1148.554848,-2258.824534,9054.440718
22939.560394,-1033.699363,6776.473603,11523.833642
22939.562942,-19.142581,-7446.463931,7752.745224
22939.565490,593.420005,2775.674216,10107.282662
22939.568039,-1205.982590,153.140646,9934.999435
22939.570587,95.712904,3101.098090,9992.427178
22939.573135,2124.826469,-689.132909,8901.300072
22939.575684,-114.855485,-363.709035,8977.870395
22939.578234,-248.853550,8863.014910,11753.544611
22939.580783,1607.976787,-6240.481341,7312.465866
22939.583332,1014.556782,478.564520,9226.723946
22939.585881,-2086.541307,8633.303941,12117.253646
22939.588430,823.130974,1244.267752,10068.997501
22939.590980,1378.265818,-5417.350366,7637.889739
22939.593529,-1378.265818,6355.336826,10949.556218
22939.596078,1263.410333,765.703232,9609.575562
22939.598627,1359.123237,-3273.381317,8231.309744
22939.601176,-555.134843,6317.051664,10892.128475
22939.603725,1110.269686,1033.699363,9494.720077
22939.606275,38.285162,-1990.828403,8556.733618
22939.608824,459.421939,5168.496816,10547.562021
22939.611373,-1014.556782,-937.986459,9360.722011
22939.613922,1933.400661,1856.830338,9628.718142
22939.616471,-784.845813,-5704.489078,8250.452325
22939.619021,-2603.390989,-133.998066,9896.714274
22939.621570,-1148.554848,7274.180704,12059.825904
22939.624119,937.986459,-12538.390424,5934.200048
22939.626668,-1129.412267,5168.496816,11102.696864
22939.629217,-2086.541307,6987.041992,11868.400096
22939.631766,2603.390989,-12327.822035,5876.772306
22939.634316,-3311.666478,6393.621987,11083.554283
22939.636865,-1684.547110,4900.500685,11370.692995
22939.639414,1914.258080,-10700.702667,6336.194245
22939.641963,-1818.545176,4498.506488,10700.702667
22939.644512,-593.420005,3292.523898,10872.985894
22939.647061,995.414202,-8997.012976,7197.610381
22939.649611,-2086.541307,4153.940034,10815.558152
22939.652160,-1167.697429,6680.760699,11523.833642
22939.654709,-421.136778,-5991.627790,8173.882002
22939.657258,1071.984525,1339.980656,9705.288466
22939.659807,-880.558717,-210.568389,9820.143950
22939.662357,-344.566454,4709.074877,10470.991698
22939.664906,2335.394858,-1435.693560,8575.876198
22939.667455,-0.000000,-2086.541307,8461.020714
22939.670004,-650.847747,11294.122672,12519.247843
22939.672553,1780.260014,-6853.043926,7140.182638
22939.675102,1186.840010,-1320.838075,8633.303941
22939.677653,-2469.392923,10643.274925,12672.388490
22939.680203,2928.814862,-6125.625856,7963.313613
22939.682753,1722.832272,-7006.184573,7159.325219
22939.685303,-1569.691626,6642.475538,11102.696864
22939.687854,1014.556782,1952.543242,10030.712339
22939.690404,1703.689691,-4613.361973,7791.030386
22939.692954,-267.996131,6163.911018,10758.130410
22939.695504,957.129040,2584.248408,9896.714274
22939.698055,440.279358,-3541.377448,8269.594906
22939.700605,478.564520,5627.918755,10585.847182
22939.703155,-535.992262,-1454.836141,9284.151688
22939.705705,114.855485,2469.392923,9839.286531
22939.708256,708.275490,-4479.363907,8556.733618
22939.710806,-2775.674216,191.425808,10030.712339
22939.713356,-957.129040,5474.778109,11466.405899
22939.715906,306.281293,-6240.481341,7886.743290
