#time,accel_x,accel_y,accel_z
22804.455400,-1512.263883,3407.379382,10509.276859
22804.458000,1205.982590,-4575.076811,7982.456194
22804.460599,957.129040,1875.972918,10030.712339
22804.463199,-555.134843,4364.508422,10911.271056
22804.465798,401.994197,-4230.510357,8154.739421
22804.468397,574.277424,918.843878,9667.003304
22804.470997,-133.998066,3751.945837,10892.128475
22804.473596,823.130974,-4058.227130,8499.305875
22804.476196,1091.127106,-95.712904,9092.725880
22804.478795,76.570323,3464.807125,10413.563955
22804.481395,57.427742,-1512.263883,9169.296203
22804.483994,1033.699363,-1148.554848,9226.723946
22804.486593,689.132909,2009.970984,9954.142016
22804.489193,-1071.984525,2297.109696,10279.565890
22804.491792,669.990328,-3617.947771,8480.163294
22804.494392,842.273555,1129.412267,9877.571693
22804.496991,478.564520,2297.109696,10336.993632
22804.499590,-191.425808,-2928.814862,8633.303941
22804.502190,191.425808,76.570323,9456.434915
22804.504789,957.129040,2737.389054,10509.276859
22804.507389,-1359.123237,-2143.969050,8748.159426
22804.509988,1091.127106,-1531.406464,8843.872330
22804.512588,-631.705166,4402.793584,10949.556218
22804.515187,421.136778,-995.414202,9322.436850
22804.517786,-1837.687757,-3924.229064,8097.311678
22804.520386,2699.103893,-382.851616,9245.866526
22804.522985,-2507.678085,6431.907149,11600.403965
22804.525585,2871.387120,-7159.325219,7867.600709
22804.528184,1129.412267,3235.096155,10375.278794
22804.530784,-5034.498750,4211.367776,10566.704602
22804.533396,4536.791650,-7235.895542,7484.749093
22804.536008,-3349.951640,9762.716208,11906.685258
22804.538621,-1741.974853,-2967.100024,8595.018779
22804.541233,2201.396792,-2967.100024,8097.311678
22804.543845,-918.843878,10413.563955,12653.245909
22804.546458,-669.990328,-6278.766502,7733.602643
22804.549070,727.418070,-4039.084549,7925.028451
22804.551682,-995.414202,7427.321350,11600.403965
22804.554295,-2086.541307,3790.230998,10853.843314
22804.556907,2526.820666,-7867.600709,6987.041992
22804.559519,-708.275490,6297.909083,10892.128475
22804.562132,-1646.261949,3751.945837,10643.274925
22804.564744,-957.129040,-5972.485210,7408.178770
22804.567357,-880.558717,3388.236802,10202.995566
22804.569969,-248.853550,2431.107762,10317.851051
22804.572581,1397.408398,-3369.094221,8537.591037
22804.575194,-210.568389,2201.396792,10126.425243
22804.577806,-899.701298,1359.123237,9915.856854
22804.580418,-976.271621,-2067.398726,8633.303941
22804.583031,-535.992262,1129.412267,9513.862658
22804.585643,76.570323,1531.406464,9839.286531
22804.588255,-0.000000,880.558717,9686.145885
22804.590868,-612.562586,-287.138712,9341.579430
22804.593480,-535.992262,995.414202,9628.718142
22804.596092,-1052.841944,1225.125171,9571.290400
22804.598705,-1167.697429,1397.408398,9399.007173
22804.601317,114.855485,-612.562586,9226.723946
22804.603930,1301.695494,976.271621,9954.142016
22804.606542,-1665.404530,1933.400661,9915.856854
22804.609154,-133.998066,-2431.107762,8671.589102
22804.611767,-1741.974853,1339.980656,9724.431046
22804.614379,995.414202,2660.818731,10394.421374
22804.616991,-0.000000,1895.115499,9992.427178
22804.619604,1473.978722,-2182.254211,8805.587168
22804.622216,-2584.248408,3196.810994,10260.423309
22804.624828,-784.845813,-2124.826469,8786.444587
22804.627441,1091.127106,2775.674216,10183.852986
22804.630053,-4517.649069,497.707101,9303.294269
22804.632665,6451.049730,-5091.926493,8480.163294
22804.635278,1110.269686,9590.432981,12557.533005
22804.637896,-1320.838075,-6049.055533,7963.313613
22804.640514,2201.396792,-5225.924558,7561.319416
22804.643132,-4383.651003,12232.109131,13304.093656
22804.645750,1167.697429,-7255.038123,7561.319416
22804.648369,2909.672282,-3617.947771,8097.311678
22804.650987,-1473.978722,9169.296203,11810.972354
22804.653605,-1473.978722,1301.695494,10241.280728
22804.656223,2143.969050,-8901.300072,6795.616184
22804.658841,-1435.693560,6757.331022,11351.550414
22804.661459,401.994197,1014.556782,10107.282662
22804.664077,1722.832272,-6125.625856,7848.458128
22804.666696,210.568389,4479.363907,10911.271056
22804.669314,-459.421939,823.130974,9781.858789
22804.671932,267.996131,-2220.539373,8518.448456
22804.674550,-153.140646,2450.250342,10164.710405
22804.677168,1244.267752,612.562586,9877.571693
22804.679786,172.283227,-861.416136,9169.296203
22804.682404,-76.570323,631.705166,9667.003304
22804.685023,-57.427742,-612.562586,9360.722011
22804.687641,344.566454,287.138712,9571.290400
22804.690259,-325.423874,1550.549045,9858.429112
22804.692877,555.134843,-1033.699363,9341.579430
22804.695495,1186.840010,-325.423874,9590.432981
22804.698113,-306.281293,1033.699363,9896.714274
22804.700731,19.142581,-1588.834206,9016.155557
22804.703350,114.855485,689.132909,9571.290400
22804.705968,401.994197,306.281293,9781.858789
22804.708586,1225.125171,421.136778,9609.575562
22804.711204,153.140646,727.418070,9781.858789
22804.713822,-631.705166,-401.994197,9303.294269
22804.716440,2086.541307,-1588.834206,9379.864592
22804.719058,287.138712,4517.649069,10719.845248
22804.721677,-1110.269686,-3139.383251,8575.876198
22804.724295,3464.807125,38.285162,9647.860723
22804.726913,-3828.516160,2526.820666,10145.567824
22804.729531,3503.092286,-4345.365842,8231.309744
22804.732149,-2660.818731,5819.344563,10911.271056
22804.734767,-2603.390989,-1818.545176,9035.298138
22804.737385,3541.377448,-2335.394858,8422.735552
22804.740004,-3656.232933,10451.849117,12155.538808
22804.742623,1091.127106,-7216.752962,7255.038123
22804.745243,2258.824534,-1359.123237,9207.581365
22804.747862,-2526.820666,10815.558152,12863.814298
22804.750481,-1990.828403,574.277424,9973.284597
22804.753101,1473.978722,-8786.444587,6604.190376
22804.755720,-363.709035,9456.434915,11925.827838
22804.758339,-440.279358,2182.254211,10279.565890
22804.760959,650.847747,-8078.169098,6623.332957
22804.763578,-803.988394,7810.172966,11676.974288
22804.766197,-1703.689691,2105.683888,10470.991698
22804.768816,306.281293,-6508.477472,7274.180704
22804.771436,-114.855485,3962.514226,10451.849117
22804.774055,114.855485,2603.390989,10490.134278
22804.776674,497.707101,-2411.965181,8786.444587
22804.779294,-1761.117434,1225.125171,9609.575562
22804.781913,-593.420005,229.710970,9475.577496
22804.784532,-76.570323,-38.285162,9418.149754
22804.787152,-57.427742,1627.119368,9896.714274
22804.789771,-287.138712,191.425808,9533.005238
22804.792390,-1339.980656,0.000000,9341.579430
22804.795010,-631.705166,3426.521963,10317.851051
22804.797629,153.140646,-287.138712,9341.579430
22804.800248,765.703232,-1282.552914,8882.157491
22804.802868,-1378.265818,3924.229064,10470.991698
22804.805487,-727.418070,-1531.406464,9188.438784
22804.808106,-976.271621,-1722.832272,8863.014910
22804.810726,880.558717,5034.498750,11045.269122
22804.813345,-746.560651,689.132909,9705.288466
22804.815964,1722.832272,-4058.227130,8269.594906
22804.818584,-2277.967115,1282.552914,9456.434915
22804.821203,-421.136778,1646.261949,10011.569758
22804.823822,57.427742,1531.406464,9973.284597
22804.826442,-2756.531635,-3254.238736,8212.167163
22804.829061,6508.477472,784.845813,10107.282662
22804.831680,-995.414202,8556.733618,12212.966550
22804.834300,861.416136,-11313.265253,6240.481341
22804.836919,918.843878,1033.699363,9571.290400
22804.839538,-4651.647134,9360.722011,12538.390424
22804.842158,1684.547110,-11045.269122,6106.483275
22804.844777,2239.681954,2833.101958,9973.284597
22804.847397,-1282.552914,10068.997501,12902.099459
22804.850017,95.712904,-2756.531635,9111.868461
22804.852638,1799.402595,-6814.758765,7312.465866
22804.855258,-1282.552914,7408.178770,11676.974288
22804.857878,-57.427742,-1569.691626,9322.436850
22804.860498,1473.978722,-4919.643266,8039.883936
22804.863119,497.707101,5474.778109,11313.265253
22804.865739,-0.000000,57.427742,9552.147819
22804.868359,631.705166,-2029.113565,8690.731683
22804.870979,-880.558717,2392.822600,10011.569758
22804.873600,880.558717,-382.851616,9494.720077
22804.876220,-153.140646,-631.705166,9284.151688
22804.878840,172.283227,937.986459,9628.718142
22804.881460,593.420005,133.998066,9609.575562
22804.884081,918.843878,57.427742,9513.862658
22804.886701,172.283227,574.277424,9667.003304
22804.889321,114.855485,-1167.697429,9226.723946
22804.891941,-172.283227,114.855485,9762.716208
22804.894562,-344.566454,1033.699363,9877.571693
22804.897182,2297.109696,-1129.412267,9207.581365
22804.899802,-669.990328,440.279358,9456.434915
22804.902422,-57.427742,497.707101,9609.575562
22804.905043,57.427742,57.427742,9609.575562
22804.907663,-0.000000,995.414202,9743.573627
22804.910283,1339.980656,-1550.549045,9265.009107
22804.912903,1167.697429,3943.371645,10547.562021
22804.915524,-1952.543242,1799.402595,10030.712339
22804.918144,4460.221326,-4039.084549,8595.018779
22804.920764,-3617.947771,3349.951640,10241.280728
22804.923384,-1627.119368,-2297.109696,8729.016845
22804.926005,1875.972918,1627.119368,9877.571693
22804.928625,-4957.928427,4383.651003,10528.419440
22804.931245,3062.812928,-8212.167163,6891.329088
22804.933865,-1454.836141,9341.579430,11734.402030
22804.936486,-1837.687757,1895.115499,10145.567824
22804.939106,2143.969050,-10107.282662,6546.762634
22804.941726,-229.710970,10432.706536,12500.105262
22804.944346,-2182.254211,727.418070,9973.284597
22804.946967,1722.832272,-9628.718142,6297.909083
22804.949587,669.990328,-363.709035,8863.014910
22804.952205,-1761.117434,11026.126541,12710.673651
22804.954824,-344.566454,-7676.174901,7197.610381
22804.957442,842.273555,38.285162,9169.296203
22804.960061,-2431.107762,8652.446522,12327.822035
22804.962679,421.136778,-6240.481341,7714.460062
22804.965298,-95.712904,-976.271621,8805.587168
22804.967916,114.855485,5800.201982,11160.124606
22804.970535,421.136778,-1129.412267,9284.151688
22804.973153,-669.990328,-937.986459,9131.011042
22804.975772,-1091.127106,1473.978722,9858.429112
22804.978390,-229.710970,650.847747,9494.720077
22804.981009,-382.851616,918.843878,9628.718142
22804.983627,38.285162,1014.556782,9667.003304
22804.986246,-76.570323,631.705166,9475.577496
22804.988864,38.285162,631.705166,9533.005238
22804.991482,-1167.697429,937.986459,9590.432981
22804.994101,19.142581,-593.420005,9360.722011
22804.996719,-708.275490,1129.412267,9934.999435
22804.999338,-784.845813,2009.970984,9934.999435
22805.001956,-95.712904,-2526.820666,8595.018779
22805.004575,440.279358,2086.541307,9954.142016
22805.007193,-1607.976787,1607.976787,10107.282662
22805.009812,-1282.552914,-478.564520,8997.012976
22805.012430,-2603.390989,-2009.970984,8748.159426
22805.015049,3177.668413,-669.990328,9399.007173
22805.017667,1244.267752,7599.604578,11868.400096
22805.020286,-1875.972918,-6489.334891,7465.606512
22805.022904,3885.943902,-4555.934230,8173.882002
22805.025523,-5264.209720,13591.232368,13648.660110
22805.028141,1990.828403,-10681.560086,6661.618118
22805.030760,3196.810994,-2411.965181,8480.163294
22805.033378,-899.701298,13265.808494,13495.519464
22805.035997,631.705166,-9801.001370,6623.332957
22805.038615,95.712904,-1091.127106,8614.161360
22805.041234,-1837.687757,10145.567824,12863.814298
22805.043852,1205.982590,-7427.321350,7503.891674
22805.046471,114.855485,-2411.965181,6853.043926
22805.049089,76.570323,5321.637462,11121.839445
22805.051707,-172.283227,1435.693560,10336.993632
22805.054326,727.418070,-4287.938099,8154.739421
22805.056941,-114.855485,3024.527766,10145.567824
22805.059556,631.705166,2009.970984,10011.569758
22805.062171,669.990328,-1703.689691,9188.438784
22805.064787,-382.851616,210.568389,9475.577496
22805.067402,229.710970,516.849682,9743.573627
22805.070017,287.138712,689.132909,9667.003304
22805.072632,1129.412267,-191.425808,9609.575562
22805.075247,669.990328,-459.421939,9379.864592
22805.077862,-421.136778,689.132909,9896.714274
22805.080478,-114.855485,650.847747,9915.856854
22805.083093,1684.547110,-669.990328,9494.720077
22805.085708,-229.710970,-459.421939,9207.581365
22805.088323,95.712904,899.701298,9590.432981
22805.090938,210.568389,1071.984525,9954.142016
22805.093553,-210.568389,-363.709035,9284.151688
22805.096168,2086.541307,-1148.554848,9456.434915
22805.098784,-976.271621,4287.938099,10624.132344
22805.101399,229.710970,-3675.375514,8480.163294
22805.104014,1646.261949,1205.982590,9915.856854
22805.106629,-1895.115499,1320.838075,10049.854920
22805.109244,3828.516160,-1531.406464,9207.581365
22805.111859,-4345.365842,3388.236802,9992.427178
22805.114475,-3043.670347,-1550.549045,8805.587168
22805.117090,3541.377448,-1799.402595,8633.303941
22805.119705,-3177.668413,10164.710405,12098.111066
22805.122320,363.709035,-6719.045861,7293.323285
22805.124935,2871.387120,-1627.119368,9073.583299
22805.127550,-2603.390989,11542.976222,12997.812363
22805.130165,-880.558717,-9724.431046,6623.332957
22805.132781,1359.123237,-765.703232,9073.583299
22805.135396,-1933.400661,11600.403965,12997.812363
22805.138011,440.279358,-6814.758765,7235.895542
22805.140626,1895.115499,-1320.838075,8422.735552
22805.143241,-2699.103893,9801.001370,12500.105262
22805.145856,-2794.816797,957.129040,10030.712339
22805.148472,325.423874,-6795.616184,7197.610381
22805.151087,-1148.554848,5991.627790,11160.124606
22805.153702,746.560651,899.701298,9973.284597
22805.156317,478.564520,-2277.967115,8614.161360
22805.158932,-861.416136,1818.545176,9934.999435
22805.161545,-1071.984525,995.414202,9724.431046
22805.164157,-2220.539373,-440.279358,9035.298138
22805.166769,325.423874,727.418070,9456.434915
22805.169382,995.414202,2660.818731,10183.852986
22805.171994,421.136778,-535.992262,9418.149754
22805.174607,-803.988394,19.142581,9303.294269
22805.177219,-1416.550979,1895.115499,9992.427178
22805.179832,-1186.840010,1875.972918,10049.854920
22805.182444,-133.998066,248.853550,9379.864592
22805.185056,516.849682,-957.129040,9092.725880
22805.187669,114.855485,2124.826469,9992.427178
22805.190281,-1435.693560,-191.425808,9437.292334
22805.192894,-1914.258080,497.707101,9303.294269
22805.195506,-2947.957443,-1818.545176,8863.014910
22805.198118,3809.373579,3369.094221,10643.274925
22805.200731,-4211.367776,2775.674216,10030.712339
22805.203343,3254.238736,-9705.288466,6642.475538
22805.205956,2411.965181,7752.745224,11887.542677
22805.208568,-4115.654872,3215.953574,10796.415571
22805.211180,2526.820666,-12614.960747,6451.049730
22805.213793,3311.666478,-1435.693560,9054.440718
22805.216405,-516.849682,12614.960747,13514.662045
22805.219018,497.707101,-10719.845248,6163.911018
22805.221630,57.427742,344.566454,9131.011042
22805.224243,-2258.824534,10394.421374,12825.529136
22805.226855,1263.410333,-8671.589102,7121.040058
22805.229467,1741.974853,-2105.683888,8633.303941
22805.232080,-191.425808,8403.592971,12327.822035
22805.234692,-114.855485,-5666.203917,8097.311678
22805.237305,880.558717,-1780.260014,8556.733618
22805.239917,-861.416136,6163.911018,11179.267187
22805.242529,957.129040,-2431.107762,8748.159426
22805.245142,1378.265818,-3426.521963,8422.735552
22805.247754,-555.134843,1244.267752,9743.573627
22805.250367,-133.998066,1320.838075,10068.997501
22805.252979,-0.000000,-1263.410333,9265.009107
22805.255591,669.990328,-76.570323,9437.292334
22805.258204,478.564520,995.414202,9858.429112
22805.260816,133.998066,-172.283227,9513.862658
22805.263429,1512.263883,-1071.984525,9360.722011
22805.266037,-631.705166,229.710970,9647.860723
22805.268646,-363.709035,57.427742,9303.294269
22805.271255,555.134843,478.564520,9820.143950
22805.273864,-535.992262,555.134843,9667.003304
22805.276472,2105.683888,-957.129040,9418.149754
22805.279081,421.136778,2641.676150,10222.138147
22805.281690,-593.420005,-1435.693560,9169.296203
22805.284299,1895.115499,153.140646,9513.862658
22805.286907,-2258.824534,-57.427742,9437.292334
22805.289516,4441.078746,-478.564520,9513.862658
22805.292125,-3637.090352,4307.080680,10528.419440
22805.294734,-210.568389,-5742.774240,7829.315547
22805.297342,1397.408398,5206.781978,10758.130410
22805.299951,-3962.514226,7216.752962,11313.265253
22805.302560,2603.390989,-10317.851051,5991.627790
22805.305169,2258.824534,6604.190376,11408.978157
22805.307777,-4019.941968,5608.776174,11485.548480
22805.310386,-1780.260014,-7944.171032,7197.610381
22805.312995,1875.972918,-4594.219392,7886.743290
22805.315604,-1722.832272,13706.087853,13572.089787
22805.318212,-306.281293,-4938.785846,7886.743290
22805.320821,1665.404530,-4670.789715,7350.751027
22805.323430,-842.273555,11370.692995,12959.527202
22805.326039,-2373.680019,-4039.084549,8499.305875
22805.328647,57.427742,-4900.500685,7676.174901
22805.331256,-1110.269686,8269.594906,11791.829773
22805.333865,1014.556782,-1569.691626,9379.864592
22805.336474,-19.142581,-3617.947771,8078.169098
22805.339082,-574.277424,4345.365842,10815.558152
22805.341691,-2431.107762,1990.828403,9934.999435
22805.344300,-937.986459,-2105.683888,8690.731683
22805.346909,746.560651,-1301.695494,8882.157491
22805.349517,-382.851616,4957.928427,10930.413637
22805.352126,-1244.267752,-957.129040,9226.723946
22805.354735,459.421939,-2163.111630,8709.874264
22805.357344,-842.273555,4402.793584,10604.989763
22805.359952,-1722.832272,918.843878,9399.007173
22805.362561,440.279358,-4058.227130,8154.739421
22805.365170,306.281293,3637.090352,10451.849117
22805.367779,-1186.840010,1186.840010,9992.427178
22805.370332,-1818.545176,-2258.824534,8461.020714
22805.372886,-1052.841944,-1014.556782,9054.440718
22805.375439,2163.111630,6374.479406,10509.276859
22805.377993,-2469.392923,5666.203917,10911.271056
22805.380547,727.418070,-10394.421374,6144.768437
22805.383100,3483.949706,3062.812928,10643.274925
22805.385654,-5225.924558,9494.720077,12882.956878
22805.388207,3617.947771,-14127.224630,5417.350366
22805.390761,1339.980656,5359.922624,10892.128475
22805.393315,-1052.841944,8652.446522,12308.679454
22805.395868,1684.547110,-13055.240106,5417.350366
22805.398422,95.712904,6068.198114,10892.128475
22805.400975,-2813.959378,7255.038123,11772.687192
22805.403529,995.414202,-11408.978157,6183.053598
22805.406083,1148.554848,2775.674216,10241.280728
22805.408636,-248.853550,8977.870395,12308.679454
22805.411190,-689.132909,-1205.982590,9552.147819
22805.413743,516.849682,-5072.783912,7752.745224
22805.416297,-153.140646,5781.059402,11064.411702
22805.418851,-306.281293,57.427742,9552.147819
22805.421404,1473.978722,-3847.658741,8307.880067
22805.423958,363.709035,3101.098090,10298.708470
22805.426511,-1110.269686,1167.697429,9839.286531
22805.429065,229.710970,-4096.512291,8346.165229
22805.431619,593.420005,3062.812928,10547.562021
22805.434172,76.570323,1397.408398,10088.140082
22805.436726,2603.390989,-3924.229064,8556.733618
22805.439279,-344.566454,2067.398726,10088.140082
22805.441833,-727.418070,1990.828403,10145.567824
22805.444387,325.423874,-1435.693560,9188.438784
22805.446940,114.855485,1493.121302,9801.001370
22805.449494,2277.967115,440.279358,9839.286531
22805.452047,95.712904,1359.123237,9934.999435
22805.454601,-95.712904,-2258.824534,9035.298138
22805.457155,574.277424,2048.256146,10011.569758
22805.459708,-1895.115499,-1339.980656,8977.870395
22805.462262,4383.651003,133.998066,9590.432981
22805.464815,-3885.943902,4479.363907,10643.274925
22805.467369,1761.117434,-6565.905214,7733.602643
22805.469923,-0.000000,7121.040058,11370.692995
22805.472485,-3885.943902,10681.560086,12614.960747
22805.475047,497.707101,-7082.754896,7216.752962
22805.477610,3847.658741,-2813.959378,8652.446522
22805.480172,-2641.676150,12748.958813,13629.517530
22805.482734,-1531.406464,-10681.560086,6393.621987
22805.485296,1378.265818,-1378.265818,8882.157491
22805.487859,-3024.527766,12997.812363,13418.949141
22805.490421,172.283227,-8059.026517,6814.758765
22805.492983,1052.841944,-1435.693560,8307.880067
22805.495546,-1263.410333,11083.554283,13170.095590
22805.498108,-1301.695494,-5685.346498,8020.741355
22805.500670,19.142581,-3503.092286,8059.026517
22805.503233,-1588.834206,7389.036189,11485.548480
22805.505795,-880.558717,2029.113565,10490.134278
22805.508357,861.416136,-3751.945837,8365.307810
22805.510920,-899.701298,3215.953574,10260.423309
22805.513482,-1359.123237,1952.543242,9839.286531
22805.516044,267.996131,-2699.103893,8518.448456
22805.518607,-248.853550,3081.955509,10241.280728
22805.521169,-1263.410333,1320.838075,9743.573627
22805.523731,612.562586,-2182.254211,8805.587168
22805.526293,-382.851616,3464.807125,10490.134278
22805.528856,-1454.836141,1167.697429,9475.577496
22805.531418,-267.996131,-3962.514226,8231.309744
22805.533980,-344.566454,3694.518094,10413.563955
22805.536543,-344.566454,803.988394,9839.286531
22805.539105,-899.701298,133.998066,9284.151688
22805.541667,-2335.394858,-3981.656806,8231.309744
22805.544230,2986.242605,5340.780043,11236.694930
22805.546792,-4766.502619,3522.234867,10088.140082
22805.549354,2584.248408,-11428.120738,5953.342629
22805.551917,3081.955509,8039.883936,12040.683323
22805.554479,-3675.375514,4900.500685,11581.261384
22805.557041,3828.516160,-14261.222696,5340.780043
22805.559604,-593.420005,9628.718142,12308.679454
22805.562166,-1550.549045,4249.652938,11026.126541
22805.564728,2660.818731,-12461.820101,5436.492947
22805.567290,172.283227,10279.565890,12251.251712
22805.569853,-2718.246474,2584.248408,13150.953010
22805.572415,325.423874,-9188.438784,7044.469734
22805.574983,1990.828403,-3273.381317,8384.450390
22805.577551,-650.847747,9686.145885,12787.243974
22805.580119,478.564520,-5283.352301,8135.596840
22805.582687,612.562586,-3120.240670,8231.309744
22805.585255,-38.285162,6910.471669,11619.546546
22805.587823,172.283227,-842.273555,9322.436850
22805.590391,-19.142581,-2852.244539,8346.165229
22805.592959,631.705166,1818.545176,9992.427178
22805.595527,650.847747,1722.832272,10317.851051
22805.598095,172.283227,-2105.683888,8997.012976
22805.600663,516.849682,-267.996131,9322.436850
22805.603231,2009.970984,918.843878,9973.284597
22805.605799,-727.418070,1569.691626,10049.854920
22805.608367,-248.853550,-3139.383251,8499.305875
22805.610935,1129.412267,803.988394,9896.714274
22805.613503,-1531.406464,4192.225195,10624.132344
22805.616071,2488.535504,-3694.518094,8499.305875
22805.618639,-631.705166,1435.693560,9705.288466
22805.621207,153.140646,995.414202,10183.852986
22805.623775,-612.562586,-842.273555,9360.722011
22805.626343,1282.552914,-2258.824534,8920.442653
22805.628911,1397.408398,5149.354235,10949.556218
22805.631479,-4211.367776,-1435.693560,8690.731683
22805.634047,4479.363907,-4728.217458,8250.452325
22805.636615,1320.838075,6757.331022,11198.409768
22805.639183,-4153.940034,7503.891674,11581.261384
22805.641751,2622.533570,-11830.114934,5532.205851
22805.644319,2124.826469,7503.891674,11466.405899
22805.646887,-4134.797453,5340.780043,11408.978157
22805.649455,248.853550,-14222.937534,5053.641331
22805.652023,-574.277424,9245.866526,12136.396227
22805.654591,-3407.379382,5187.639397,11294.122672
22805.657159,1761.117434,-11772.687192,5474.778109
22805.659727,-0.000000,9724.431046,11734.402030
22805.662295,-1454.836141,5398.207786,11657.831707
22805.664863,248.853550,-9724.431046,6585.047795
22805.667431,210.568389,4173.082614,7484.749093
22805.669999,-478.564520,7867.600709,11753.544611
22805.672567,-133.998066,-1684.547110,9303.294269
22805.675135,210.568389,-3598.805190,8422.735552
22805.677708,-1186.840010,4919.643266,10777.272990
22805.680281,-1014.556782,823.130974,9571.290400
22805.682854,114.855485,-2622.533570,8575.876198
22805.685427,-765.703232,4019.941968,10413.563955
22805.688000,-421.136778,555.134843,9724.431046
22805.690573,574.277424,-1588.834206,8997.012976
22805.693146,-2258.824534,2947.957443,9973.284597
22805.695719,344.566454,-1454.836141,9035.298138
22805.698292,19.142581,899.701298,9762.716208
22805.700865,-76.570323,1971.685822,9992.427178
22805.703438,-2718.246474,957.129040,9437.292334
22805.706011,459.421939,-3943.371645,8346.165229
22805.708584,1244.267752,6872.186507,11600.403965
22805.711157,-4479.363907,-1435.693560,8729.016845
22805.713730,5953.342629,-6183.053598,7848.458128
22805.716303,-401.994197,12232.109131,13323.236237
22805.718876,401.994197,-7599.604578,7599.604578
22805.721448,1703.689691,-6757.331022,7178.467800
22805.724021,-3330.809059,12327.822035,13418.949141
22805.726594,-95.712904,-6565.905214,7810.172966
22805.729167,3196.810994,-3579.662610,7982.456194
22805.731740,-344.566454,12538.390424,13284.951075
22805.734313,-2890.529701,3235.096155,10509.276859
22805.736886,2316.252277,-10643.274925,6317.051664
22805.739459,459.421939,7561.319416,11849.257515
22805.742032,574.277424,1914.258080,10509.276859
22805.744605,1856.830338,-8480.163294,6795.616184
22805.747178,-210.568389,4823.930362,10662.417506
22805.749751,-1014.556782,3196.810994,10719.845248
22805.752324,-899.701298,-5551.348432,7618.747158
22805.754897,38.285162,1493.121302,9724.431046
22805.757470,1473.978722,3790.230998,10777.272990
22805.760043,995.414202,-1933.400661,9245.866526
22805.762616,325.423874,-1914.258080,9035.298138
22805.765189,1722.832272,535.992262,9743.573627
22805.767762,-1205.982590,2335.394858,10279.565890
22805.770335,-95.712904,-3388.236802,8461.020714
22805.772908,1071.984525,1282.552914,9992.427178
22805.775481,-1378.265818,2450.250342,10202.995566
22805.778054,1225.125171,-2852.244539,8518.448456
22805.780631,-325.423874,765.703232,9609.575562
22805.783207,1301.695494,2239.681954,10413.563955
22805.785783,-1799.402595,-2277.967115,8997.012976
22805.788359,3924.229064,-1741.974853,9150.153622
22805.790935,-2986.242605,3828.516160,10528.419440
22805.793512,76.570323,-4862.215523,8001.598774
22805.796088,287.138712,4249.652938,10547.562021
22805.798664,-5417.350366,9820.143950,11753.544611
22805.801240,-363.709035,-7101.897477,7293.323285
22805.803816,784.845813,1952.543242,9781.858789
22805.806393,-1531.406464,9111.868461,12346.964616
22805.808969,1033.699363,-10470.991698,6489.334891
22805.811545,957.129040,3101.098090,10049.854920
22805.814121,-3560.520029,8269.594906,12193.823970
22805.816697,1684.547110,-10987.841379,6336.194245
22805.819274,210.568389,4651.647134,10375.278794
22805.821850,-2756.531635,9131.011042,12117.253646
22805.824426,823.130974,-9016.155557,6585.047795
22805.827002,-133.998066,2469.392923,10049.854920
22805.829578,-1052.841944,5513.063270,11485.548480
22805.832155,210.568389,-937.986459,9226.723946
22805.834731,344.566454,-2947.957443,8575.876198
22805.837307,-1110.269686,3005.385186,10451.849117
22805.839883,-363.709035,440.279358,9552.147819
22805.842459,-612.562586,-459.421939,8997.012976
22805.845036,-1282.552914,2660.818731,9934.999435
22805.847612,-57.427742,535.992262,9437.292334
22805.850188,191.425808,57.427742,9533.005238
22805.852764,-650.847747,1129.412267,9705.288466
22805.855341,210.568389,1493.121302,9954.142016
22805.857917,-1339.980656,19.142581,9590.432981
22805.860493,-114.855485,-1397.408398,8863.014910
22805.863069,-516.849682,-440.279358,9150.153622
22805.865645,401.994197,5264.209720,10911.271056
22805.868222,-4134.797453,-1799.402595,8882.157491
22805.870798,3445.664544,-2699.103893,8556.733618
22805.873374,-1952.543242,10068.997501,12327.822035
22805.875950,-76.570323,-8633.303941,7025.327154
22805.878526,4555.934230,-3713.660675,8537.591037
22805.881103,-4460.221326,13227.523333,13859.228499
22805.883680,2009.970984,-10968.698798,6546.762634
22805.886258,2220.539373,-1244.267752,8997.012976
22805.888836,-1378.265818,11734.402030,13093.525267
22805.891413,842.273555,-9801.001370,6393.621987
22805.893991,1722.832272,861.416136,9341.579430
22805.896569,-2067.398726,9494.720077,12174.681389
22805.899147,-669.990328,-2029.113565,9207.581365
22805.901724,2967.100024,-7771.887805,7197.610381
22805.904302,-38.285162,8556.733618,12289.536874
22805.906880,325.423874,-1091.127106,9456.434915
22805.909457,631.705166,-5321.637462,7733.602643
22805.912035,-708.275490,6202.196179,11217.552349
22805.914613,76.570323,153.140646,9609.575562
22805.917190,880.558717,-2526.820666,8480.163294
22805.919768,459.421939,1837.687757,9992.427178
22805.922346,1167.697429,-19.142581,9686.145885
22805.924924,1397.408398,-2067.398726,9265.009107
22805.927501,-363.709035,899.701298,9686.145885
22805.930079,-899.701298,535.992262,9571.290400
22805.932657,1856.830338,-1244.267752,9265.009107
22805.935234,-267.996131,2986.242605,10451.849117
22805.937812,1282.552914,-1071.984525,9131.011042
22805.940390,-2029.113565,-1225.125171,8920.442653
22805.942967,746.560651,1129.412267,10011.569758
22805.945545,-1952.543242,650.847747,9915.856854
22805.948123,3694.518094,-3905.086483,8729.016845
22805.950701,-765.703232,5053.641331,11045.269122
22805.953278,-2928.814862,-2469.392923,8633.303941
22805.955856,3120.240670,-1435.693560,8901.300072
22805.958434,-6049.055533,9111.868461,11600.403965
22805.961011,-2718.246474,306.281293,9379.864592
22805.963589,2833.101958,-6355.336826,7255.038123
22805.966167,172.283227,10547.562021,12672.388490
22805.968745,-1761.117434,-4517.649069,8422.735552
22805.971322,1148.554848,-6738.188442,7063.612315
22805.973900,-2928.814862,12193.823970,13093.525267
22805.976478,-363.709035,-5245.067139,8250.452325
22805.979055,2488.535504,-3828.516160,7905.885870
22805.981633,-1914.258080,12806.386555,12978.669782
22805.984211,-612.562586,-4536.791650,8231.309744
22805.986790,-133.998066,-4536.791650,7925.028451
22805.989369,-612.562586,7867.600709,11734.402030
22805.991948,-38.285162,4594.219392,10987.841379
22805.994527,746.560651,-4058.227130,8384.450390
22805.997106,-842.273555,267.996131,9437.292334
22805.999685,-1435.693560,3196.810994,10336.993632
22806.002264,-1569.691626,-574.277424,8863.014910
22806.004843,-19.142581,823.130974,9437.292334
22806.007422,248.853550,2411.965181,10126.425243
22806.010001,-344.566454,-344.566454,9399.007173
22806.012580,555.134843,1110.269686,9762.716208
22806.015159,-1339.980656,727.418070,9858.429112
22806.017738,-459.421939,-1971.685822,8786.444587
22806.020317,-133.998066,1110.269686,9609.575562
22806.022896,-1837.687757,3675.375514,10049.854920
22806.025475,-3579.662610,-1569.691626,8882.157491
22806.028054,3196.810994,-1837.687757,8748.159426
22806.030633,-2526.820666,9073.583299,11906.685258
22806.033212,267.996131,-9265.009107,6891.329088
22806.035791,4287.938099,-2105.683888,9092.725880
22806.038370,-4230.510357,11753.544611,13399.806560
22806.040949,2545.963246,-11274.980091,6431.907149
22806.043528,1397.408398,497.707101,9513.862658
22806.046107,-1665.404530,10336.993632,12653.245909
22806.048686,1205.982590,-9839.286531,6336.194245
22806.051265,1646.261949,2775.674216,9992.427178
22806.053844,-2507.678085,7025.327154,11983.255581
22806.056423,1952.543242,-8288.737486,8958.727814
22806.059002,2660.818731,-5091.926493,7963.313613
22806.061582,38.285162,6738.188442,11715.259450
22806.064161,803.988394,-2239.681954,8977.870395
22806.066740,-153.140646,-2967.100024,8518.448456
22806.069319,-937.986459,4709.074877,10930.413637
22806.071898,38.285162,-516.849682,9265.009107
22806.074477,918.843878,-1014.556782,8997.012976
22806.077056,1052.841944,1454.836141,10030.712339
22806.079635,2048.256146,-1014.556782,9762.716208
22806.082214,-516.849682,-976.271621,9456.434915
22806.084793,-1129.412267,248.853550,9494.720077
22806.087372,267.996131,267.996131,9552.147819
22806.089951,95.712904,976.271621,9609.575562
22806.092531,1225.125171,287.138712,9513.862658
22806.095110,-0.000000,-842.273555,9284.151688
22806.097690,1071.984525,1875.972918,10164.710405
22806.100270,-2009.970984,-746.560651,9418.149754
22806.102849,3924.229064,-2354.537438,8843.872330
22806.105429,-2871.387120,2048.256146,10049.854920
22806.108008,1914.258080,-2775.674216,8824.729749
22806.110588,-995.414202,4498.506488,10700.702667
22806.113167,-4555.934230,-95.712904,9131.011042
22806.115747,2794.816797,-3751.945837,7867.600709
22806.118326,-2641.676150,10490.134278,12098.111066
22806.120906,344.566454,-4115.654872,8250.452325
22806.123486,3062.812928,-9954.142016,6967.899411
22806.126065,-95.712904,7561.319416,11581.261384
22806.128645,-3905.086483,2469.392923,10145.567824
22806.131224,2163.111630,-9265.009107,6546.762634
22806.133804,-957.129040,8633.303941,11734.402030
22806.136383,-2048.256146,3081.955509,10298.708470
22806.138963,957.129040,-7446.463931,6795.616184
22806.141542,-803.988394,6221.338760,11236.694930
22806.144122,-1378.265818,1378.265818,10183.852986
22806.146702,478.564520,-5493.920690,7465.606512
22806.149281,-440.279358,4957.928427,10930.413637
22806.151861,248.853550,976.271621,10126.425243
22806.154440,-631.705166,-2794.816797,8824.729749
22806.157020,-765.703232,631.705166,9226.723946
22806.159599,-937.986459,3962.514226,10356.136213
22806.162179,-57.427742,-1320.838075,9092.725880
22806.164758,-1397.408398,574.277424,9379.864592
22806.167338,555.134843,669.990328,9743.573627
22806.169918,325.423874,229.710970,9743.573627
22806.172497,-210.568389,803.988394,9724.431046
22806.175077,-1512.263883,-650.847747,9092.725880
22806.177656,1990.828403,2488.535504,10068.997501
22806.180236,-3751.945837,3732.803256,10298.708470
22806.182815,2316.252277,-5532.205851,7599.604578
22806.185395,1952.543242,8212.167163,11906.685258
22806.187975,-3637.090352,8863.014910,12327.822035
22806.190554,3273.381317,-13342.378818,5876.772306
22806.193133,-133.998066,2660.818731,9934.999435
22806.195712,-1665.404530,7771.887805,12232.109131
22806.198292,1646.261949,-10968.698798,6374.479406
22806.200871,1205.982590,4900.500685,10528.419440
22806.203450,-1339.980656,7197.610381,11830.114934
22806.206029,1550.549045,-9131.011042,6757.331022
22806.208608,-650.847747,3694.518094,10490.134278
22806.211187,-574.277424,4058.227130,11064.411702
22806.213767,2009.970984,-7905.885870,7350.751027
22806.216346,1225.125171,2469.392923,10126.425243
22806.218925,-172.283227,3598.805190,10796.415571
22806.221504,-593.420005,-689.132909,9571.290400
22806.224083,248.853550,-1684.547110,8958.727814
22806.226662,76.570323,3139.383251,10222.138147
22806.229241,1665.404530,-153.140646,9513.862658
22806.231821,1301.695494,-2258.824534,9016.155557
22806.234400,-57.427742,995.414202,10088.140082
22806.236979,-1244.267752,-191.425808,9494.720077
22806.239558,727.418070,-899.701298,9265.009107
22806.242137,19.142581,1091.127106,9743.573627
22806.244716,1320.838075,555.134843,9533.005238
22806.247296,669.990328,-497.707101,9437.292334
22806.249875,1282.552914,2641.676150,10413.563955
22806.252454,-1531.406464,-1627.119368,9801.001370
22806.255033,3713.660675,-3254.238736,8805.587168
22806.257612,-2067.398726,2277.967115,10222.138147
22806.260191,172.283227,-2201.396792,8805.587168
22806.262771,478.564520,2871.387120,10279.565890
22806.265350,-5455.635528,2201.396792,9762.716208
22806.267929,2316.252277,-6029.912952,7350.751027
22806.270508,-1971.685822,9743.573627,11849.257515
22806.273087,-995.414202,-153.140646,9418.149754
22806.275666,3732.803256,-7312.465866,7637.889739
22806.278246,-2048.256146,10279.565890,12787.243974
22806.280825,-3158.525832,-4039.084549,8173.882002
22806.283404,1646.261949,-5608.776174,7446.463931
22806.285983,172.283227,5091.926493,10643.274925
22806.288562,-2488.535504,7178.467800,11504.691061
22806.291141,229.710970,-8135.596840,6795.616184
22806.293721,-382.851616,3120.240670,10317.851051
22806.296299,-612.562586,4747.360038,11064.411702
22806.298877,669.990328,-4977.071008,7695.317482
22806.301455,-421.136778,1569.691626,9667.003304
22806.304033,-229.710970,2775.674216,10547.562021
22806.306611,-746.560651,-1588.834206,8977.870395
22806.309189,-1052.841944,1071.984525,9379.864592
22806.311768,-937.986459,2756.531635,10030.712339
22806.314346,-861.416136,-76.570323,9265.009107
22806.316924,1627.119368,765.703232,9226.723946
22806.319502,593.420005,2584.248408,10413.563955
22806.322080,-708.275490,-57.427742,9399.007173
22806.324658,-1225.125171,-2507.678085,8671.589102
22806.327236,-19.142581,4651.647134,10585.847182
22806.329815,-3828.516160,-631.705166,9073.583299
22806.332393,3483.949706,-1856.830338,8729.016845
22806.334971,-2488.535504,9360.722011,11887.542677
22806.337549,746.560651,-8901.300072,7101.897477
22806.340127,3847.658741,-1875.972918,9131.011042
22806.342705,-4441.078746,10432.706536,12959.527202
22806.345283,2029.113565,-10987.841379,6546.762634
22806.347862,1378.265818,555.134843,9571.290400
22806.350440,-133.998066,10547.562021,12461.820101
22806.353018,-842.273555,-1033.699363,9169.296203
22806.355596,1416.550979,-5972.485210,7408.178770
22806.358174,-1837.687757,7561.319416,11830.114934
22806.360752,-401.994197,-1531.406464,9341.579430
22806.363330,1875.972918,-6355.336826,7580.461997
22806.365909,1014.556782,6470.192310,11581.261384
22806.368487,574.277424,-708.275490,9494.720077
22806.371065,708.275490,-3675.375514,8269.594906
22806.373643,-1148.554848,3656.232933,10566.704602
22806.376221,555.134843,344.566454,9667.003304
22806.378799,1129.412267,-1703.689691,8882.157491
22806.381377,765.703232,1703.689691,10068.997501
22806.383956,-248.853550,631.705166,9954.142016
22806.386534,267.996131,-937.986459,9399.007173
22806.389112,-0.000000,-267.996131,9456.434915
22806.391690,363.709035,1569.691626,9743.573627
22806.394268,1761.117434,-114.855485,9533.005238
22806.396846,-1416.550979,-210.568389,9418.149754
22806.399424,842.273555,-1703.689691,9016.155557
22806.402001,-2373.680019,3196.810994,10298.708470
22806.404579,2201.396792,-2373.680019,9092.725880
22806.407156,574.277424,1569.691626,10049.854920
22806.409733,-2909.672282,-1129.412267,8977.870395
22806.412311,2852.244539,-114.855485,9475.577496
22806.414888,-5819.344563,5800.201982,11638.689126
22806.417466,-2220.539373,-1378.265818,8882.157491
22806.420043,1397.408398,-3139.383251,7944.171032
22806.422620,-497.707101,9801.001370,12308.679454
22806.425198,133.998066,-5742.774240,8250.452325
22806.427775,1339.980656,-3177.668413,8269.594906
22806.430353,-3579.662610,9456.434915,12270.394293
22806.432930,459.421939,-5857.629725,7791.030386
22806.435508,1761.117434,-937.986459,8824.729749
22806.438085,-1722.832272,9820.143950,12193.823970
22806.440662,-669.990328,-5225.924558,7829.315547
22806.443240,-229.710970,-1569.691626,8901.300072
22806.445817,-1129.412267,6202.196179,11274.980091
22806.448395,-497.707101,2622.533570,10049.854920
22806.450972,440.279358,-4153.940034,8059.026517
22806.453550,57.427742,3177.668413,10470.991698
22806.456127,-1129.412267,2603.390989,10298.708470
22806.458704,-612.562586,-2813.959378,8173.882002
22806.461282,-1990.828403,2928.814862,9992.427178
22806.463859,803.988394,2603.390989,10375.278794
22806.466437,803.988394,-1473.978722,9226.723946
22806.469014,-401.994197,-229.710970,9245.866526
22806.471592,-918.843878,440.279358,9609.575562
22806.474169,-2469.392923,2143.969050,9915.856854
22806.476746,-2067.398726,-4039.084549,8097.311678
22806.479324,2813.959378,3962.514226,10356.136213
22806.481901,-1263.410333,9169.296203,11830.114934
22806.484479,38.285162,-7101.897477,7637.889739
22806.487056,4153.940034,-3617.947771,8671.589102
22806.489634,-4766.502619,10892.128475,12978.669782
22806.492211,1454.836141,-9073.583299,6987.041992
22806.494788,2009.970984,-1665.404530,8920.442653
22806.497366,-401.994197,9934.999435,12614.960747
22806.499943,976.271621,-7389.036189,7121.040058
22806.502519,1167.697429,803.988394,9437.292334
22806.505095,-1875.972918,6374.479406,11542.976222
22806.507671,114.855485,-5934.200048,7925.028451
22806.510247,1684.547110,-133.998066,9399.007173
22806.512824,937.986459,1378.265818,11313.265253
22806.515400,-19.142581,-440.279358,9533.005238
22806.517976,1320.838075,-3694.518094,8327.022648
22806.520552,-995.414202,4651.647134,10853.843314
22806.523128,1091.127106,-803.988394,9571.290400
22806.525704,1167.697429,-1780.260014,8843.872330
22806.528280,-153.140646,2833.101958,10164.710405
22806.530856,287.138712,-1493.121302,9284.151688
22806.533432,1186.840010,-803.988394,9513.862658
22806.536008,-1263.410333,1473.978722,9743.573627
22806.538584,899.701298,-937.986459,9035.298138
22806.541160,1684.547110,440.279358,9915.856854
22806.543736,440.279358,3273.381317,10662.417506
22806.546312,-1416.550979,-995.414202,9265.009107
22806.548888,3292.523898,-2220.539373,8690.731683
22806.551465,-3158.525832,2737.389054,10260.423309
22806.554041,2277.967115,-2947.957443,9035.298138
22806.556617,-1895.115499,3311.666478,10375.278794
22806.559193,-3292.523898,-631.705166,9226.723946
22806.561769,3120.240670,-1665.404530,8843.872330
22806.564345,-2392.822600,8709.874264,11676.974288
22806.566921,344.566454,-4632.504554,7810.172966
22806.569497,2277.967115,-1205.982590,9016.155557
22806.572073,-3464.807125,7503.891674,11964.113000
22806.574649,-1129.412267,-7791.030386,7159.325219
22806.577225,-229.710970,1646.261949,7503.891674
22806.579801,-1416.550979,7618.747158,11485.548480
22806.582377,-555.134843,478.564520,9533.005238
22806.584953,478.564520,-3847.658741,7752.745224
22806.587529,-976.271621,5130.211654,11045.269122
22806.590105,-861.416136,401.994197,9877.571693
22806.592682,-421.136778,-2756.531635,8461.020714
22806.595258,-478.564520,3101.098090,10279.565890
22806.597834,650.847747,1205.982590,9915.856854
22806.600410,-133.998066,-976.271621,9092.725880
22806.602986,-803.988394,995.414202,9513.862658
22806.605561,-3177.668413,2545.963246,9762.716208
22806.608136,823.130974,-344.566454,9341.579430
22806.610711,1416.550979,133.998066,9667.003304
22806.613286,344.566454,2335.394858,10126.425243
22806.615861,-1473.978722,-2048.256146,8920.442653
22806.618436,459.421939,1933.400661,9934.999435
22806.621011,-4134.797453,1856.830338,9915.856854
22806.623586,3043.670347,-3005.385186,8327.022648
22806.626161,-1416.550979,7542.176835,11294.122672
22806.628736,344.566454,-5379.065205,8059.026517
22806.631311,4039.084549,-3081.955509,8901.300072
22806.633887,-4268.795518,8997.012976,12385.249778
22806.636462,1091.127106,-8078.169098,7255.038123
22806.639037,1512.263883,-1091.127106,9150.153622
22806.641612,-172.283227,8748.159426,12404.392358
22806.644187,-363.709035,669.990328,9801.001370
22806.646762,1263.410333,-5359.922624,7637.889739
22806.649337,-1378.265818,5245.067139,11121.839445
22806.651912,-248.853550,114.855485,9762.716208
22806.654487,1531.406464,-4613.361973,8097.311678
22806.657062,1225.125171,3751.945837,10968.698798
22806.659637,344.566454,-191.425808,9686.145885
22806.662212,784.845813,-2526.820666,8518.448456
22806.664787,-401.994197,3254.238736,10317.851051
22806.667362,-76.570323,-382.851616,9533.005238
22806.669937,746.560651,-2048.256146,8977.870395
22806.672512,440.279358,2718.246474,10375.278794
22806.675087,612.562586,2067.398726,10451.849117
22806.677662,669.990328,-3177.668413,8729.016845
22806.680238,-153.140646,1282.552914,9609.575562
22806.682813,1339.980656,2201.396792,10279.565890
22806.685388,-478.564520,-1378.265818,9092.725880
22806.687963,823.130974,-1454.836141,9188.438784
22806.690538,-210.568389,4230.510357,10719.845248
22806.693113,976.271621,-2852.244539,8882.157491
22806.695688,2143.969050,1837.687757,10011.569758
22806.698263,-4804.787781,1722.832272,9705.288466
22806.700838,3388.236802,-4977.071008,8307.880067
22806.703413,-3388.236802,8327.022648,11638.689126
22806.705988,-1397.408398,-1454.836141,8882.157491
22806.708562,1493.121302,-7523.034254,6891.329088
22806.711135,401.994197,4823.930362,10432.706536
22806.713709,-2641.676150,3273.381317,10738.987829
22806.716283,689.132909,-8307.880067,6853.043926
22806.718856,-1780.260014,6470.192310,11332.407834
22806.721430,-823.130974,1952.543242,10317.851051
22806.724004,1665.404530,-5627.918755,7523.034254
22806.726577,-593.420005,6719.045861,10968.698798
22806.729151,-1607.976787,1359.123237,10049.854920
22806.731725,76.570323,-4058.227130,8212.167163
22806.734298,-1167.697429,3349.951640,10222.138147
22806.736872,-631.705166,918.843878,9590.432981
22806.739446,899.701298,-2450.250342,8958.727814
22806.742019,-114.855485,689.132909,9533.005238
22806.744593,-1550.549045,2928.814862,10088.140082
22806.747166,-2258.824534,191.425808,8939.585234
22806.749740,-191.425808,-1110.269686,9111.868461
22806.752314,880.558717,2201.396792,10202.995566
22806.754887,516.849682,1550.549045,10030.712339
22806.757461,-1684.547110,-2411.965181,8748.159426
22806.760035,1607.976787,2105.683888,10126.425243
22806.762608,-3962.514226,3885.943902,10470.991698
22806.765182,2450.250342,-5398.207786,7599.604578
22806.767756,1167.697429,7599.604578,11428.120738
22806.770329,-1837.687757,-1550.549045,9341.579430
22806.772903,3656.232933,-10987.841379,6738.188442
22806.775477,-1129.412267,3598.805190,10279.565890
22806.778050,-650.847747,5245.067139,11370.692995
22806.780624,1722.832272,-9533.005238,6872.186507
22806.783198,1014.556782,4575.076811,10528.419440
22806.785771,-593.420005,4823.930362,11121.839445
22806.788345,1186.840010,-6010.770371,7676.174901
22806.790918,-555.134843,2277.967115,10068.997501
22806.793492,-478.564520,3215.953574,10624.132344
22806.796066,478.564520,-5513.063270,7925.028451
22806.798639,2909.672282,1818.545176,10279.565890
22806.801213,-287.138712,3598.805190,10815.558152
22806.803787,880.558717,-5034.498750,7925.028451
22806.806360,1205.982590,-3081.955509,8480.163294
22806.808934,-823.130974,5953.342629,11236.694930
22806.811507,-0.000000,-2392.822600,8901.300072
22806.814079,2297.109696,-3637.090352,8537.591037
22806.816652,421.136778,5398.207786,11351.550414
22806.819225,-401.994197,-2373.680019,8901.300072
22806.821797,1301.695494,-2737.389054,8671.589102
22806.824370,-2813.959378,3905.086483,10528.419440
22806.826942,1167.697429,-2373.680019,8882.157491
22806.829515,-1014.556782,459.421939,9399.007173
22806.832087,3445.664544,1301.695494,10202.995566
22806.834660,-2411.965181,-210.568389,9399.007173
22806.837233,-4517.649069,-4823.930362,7657.032320
22806.839805,3483.949706,-191.425808,9456.434915
22806.842378,-5206.781978,9418.149754,12040.683323
22806.844950,210.568389,-8767.302006,6661.618118
22806.847523,746.560651,2622.533570,9762.716208
22806.850096,-2220.539373,11217.552349,12806.386555
22806.852668,1761.117434,-10738.987829,6489.334891
22806.855241,95.712904,2833.101958,9896.714274
22806.857813,-3598.805190,7331.608446,11849.257515
22806.860386,1282.552914,-9131.011042,6872.186507
22806.862958,-440.279358,3062.812928,10068.997501
22806.865531,-1933.400661,6967.899411,11351.550414
22806.868104,-38.285162,-6106.483275,7369.893608
22806.870676,-229.710970,-3732.803256,8231.309744
22806.873249,-1301.695494,5379.065205,10892.128475
22806.875821,-555.134843,-880.558717,9111.868461
22806.878394,440.279358,-1952.543242,8920.442653
22806.880967,-746.560651,4096.512291,10700.702667
22806.883539,-1071.984525,-229.710970,9245.866526
22806.886112,-574.277424,689.132909,9131.011042
22806.888684,-1205.982590,2182.254211,10049.854920
22806.891257,459.421939,-1722.832272,8939.585234
22806.893829,1148.554848,1761.117434,10145.567824
22806.896402,-2756.531635,1952.543242,10049.854920
22806.898975,2182.254211,-3330.809059,8671.589102
22806.901547,803.988394,3713.660675,10375.278794
22806.904120,-3311.666478,1569.691626,9590.432981
22806.906692,6604.190376,-3388.236802,8729.016845
22806.909265,-1435.693560,7791.030386,11868.400096
22806.911837,1148.554848,-6795.616184,7848.458128
22806.914408,153.140646,-3273.381317,8288.737486
22806.916979,-1129.412267,7982.456194,12136.396227
22806.919550,842.273555,-5800.201982,8135.596840
22806.922121,1914.258080,-1129.412267,8767.302006
22806.924692,-440.279358,8020.741355,11887.542677
22806.927263,1033.699363,-4134.797453,8327.022648
22806.929834,-114.855485,-2258.824534,8805.587168
22806.932405,-918.843878,5053.641331,11045.269122
22806.934976,-459.421939,1397.408398,10107.282662
22806.937547,2622.533570,-3101.098090,8690.731683
22806.940118,535.992262,1971.685822,10183.852986
22806.942689,-421.136778,803.988394,9820.143950
22806.945260,267.996131,-1473.978722,8901.300072
22806.947831,-210.568389,1914.258080,10107.282662
22806.950402,1071.984525,-823.130974,9494.720077
22806.952973,1952.543242,-1320.838075,9456.434915
22806.955544,-516.849682,1703.689691,10107.282662
22806.958115,57.427742,-1339.980656,9016.155557
22806.960686,133.998066,-1052.841944,9341.579430
22806.963257,803.988394,3866.801322,10604.989763
22806.965828,-1301.695494,-1339.980656,10164.710405
22806.968399,4058.227130,-3235.096155,8652.446522
22806.970970,-2584.248408,1856.830338,9954.142016
22806.973541,-401.994197,-1607.976787,9054.440718
22806.976112,-842.273555,2660.818731,10202.995566
22806.978683,-4211.367776,57.427742,9322.436850
22806.981254,3388.236802,-3694.518094,8154.739421
22806.983825,-1914.258080,9399.007173,11734.402030
22806.986396,-708.275490,-2277.967115,8614.161360
22806.988967,1703.689691,-4594.219392,7982.456194
22806.991538,-3062.812928,8384.450390,11964.113000
22806.994109,-1703.689691,-5225.924558,7867.600709
22806.996651,421.136778,-1301.695494,8939.585234
22806.999192,-976.271621,4823.930362,10662.417506
22807.001734,-631.705166,3349.951640,10413.563955
22807.004275,133.998066,-3139.383251,8097.311678
22807.006817,-344.566454,2545.963246,10222.138147
22807.009358,-440.279358,1359.123237,9934.999435
22807.011900,-382.851616,-1359.123237,8843.872330
22807.014441,-1071.984525,1110.269686,9686.145885
22807.016983,172.283227,899.701298,9820.143950
22807.019525,-1703.689691,1148.554848,9628.718142
22807.022066,306.281293,861.416136,9399.007173
22807.024608,-153.140646,2182.254211,10049.854920
22807.027149,-842.273555,-535.992262,9169.296203
22807.029691,1167.697429,-1052.841944,8499.305875
22807.032232,-2258.824534,3349.951640,10183.852986
22807.034774,-1971.685822,-1799.402595,9073.583299
22807.037316,2297.109696,1167.697429,9743.573627
22807.039857,-4383.651003,3771.088418,9992.427178
22807.042399,5398.207786,-5742.774240,8039.883936
22807.044940,918.843878,6795.616184,11638.689126
22807.047482,-976.271621,-2258.824534,9092.725880
22807.050023,746.560651,-7810.172966,7197.610381
22807.052565,-784.845813,8173.882002,12098.111066
22807.055106,325.423874,-995.414202,9724.431046
22807.057648,2220.539373,-5398.207786,7484.749093
22807.060190,-19.142581,8288.737486,11791.829773
22807.062731,-803.988394,5340.780043,11389.835576
22807.065273,516.849682,-5608.776174,8039.883936
22807.067814,401.994197,-421.136778,9265.009107
22807.070356,440.279358,4115.654872,10987.841379
22807.072897,899.701298,-1818.545176,9092.725880
22807.075439,574.277424,-1933.400661,8824.729749
22807.077980,-95.712904,3043.670347,10394.421374
22807.080522,-133.998066,229.710970,9513.862658
22807.083064,555.134843,-2048.256146,8958.727814
22807.085605,1780.260014,937.986459,10068.997501
22807.088147,-325.423874,574.277424,9915.856854
22807.090688,95.712904,-2373.680019,8748.159426
22807.093230,1837.687757,1339.980656,10030.712339
22807.095771,861.416136,5340.780043,11140.982026
22807.098317,-344.566454,-1646.261949,9073.583299
22807.100862,2603.390989,-1205.982590,8939.585234
22807.103407,-746.560651,2182.254211,10279.565890
22807.105952,2756.531635,555.134843,9954.142016
22807.108497,-4938.785846,-363.709035,8997.012976
22807.111043,1818.545176,-3637.090352,8575.876198
22807.113588,-363.709035,8690.731683,12136.396227
22807.116133,-1933.400661,1052.841944,9571.290400
22807.118678,1933.400661,-6948.756830,6814.758765
22807.121223,-382.851616,10394.421374,12289.536874
22807.123769,-1320.838075,-1359.123237,9360.722011
22807.126314,-153.140646,-9571.290400,6470.192310
22807.128859,-516.849682,2622.533570,10088.140082
22807.131404,-1339.980656,7216.752962,11983.255581
22807.133949,1339.980656,-6087.340694,7503.891674
22807.136495,153.140646,2297.109696,9437.292334
22807.139040,-1282.552914,4881.358104,10930.413637
22807.141585,-784.845813,-3273.381317,8575.876198
22807.144130,-669.990328,-191.425808,9150.153622
22807.146675,-1052.841944,3215.953574,10356.136213
22807.149221,-38.285162,-861.416136,9265.009107
22807.151766,-1512.263883,689.132909,9399.007173
22807.154311,593.420005,2143.969050,9954.142016
22807.156856,325.423874,1588.834206,9858.429112
22807.159401,-1091.127106,1205.982590,9724.431046
22807.161947,-516.849682,-3311.666478,8403.592971
22807.164492,-1033.699363,2986.242605,10336.993632
22807.167037,-2852.244539,-440.279358,9418.149754
22807.169582,3235.096155,-555.134843,9226.723946
22807.172127,-3981.656806,5091.926493,10470.991698
22807.174673,3349.951640,-6317.051664,7791.030386
22807.177218,1990.828403,3732.803256,10719.845248
22807.179763,-2201.396792,1875.972918,10279.565890
22807.182308,765.703232,-8939.585234,6967.899411
22807.184853,153.140646,5704.489078,11428.120738
22807.187399,191.425808,3139.383251,10930.413637
22807.189944,401.994197,-5091.926493,7752.745224
22807.192489,1493.121302,-1416.550979,8614.161360
22807.195034,-784.845813,6814.758765,11906.685258
22807.197579,1665.404530,-3579.662610,8882.157491
22807.200127,1971.685822,-2813.959378,8595.018779
22807.202675,1339.980656,5379.065205,10968.698798
22807.205222,1110.269686,-784.845813,9131.011042
22807.207770,1531.406464,-2737.389054,8595.018779
22807.210318,19.142581,2909.672282,10432.706536
22807.212865,95.712904,363.709035,9590.432981
22807.215413,784.845813,-2545.963246,8671.589102
22807.217960,440.279358,1014.556782,10030.712339
22807.220508,-1435.693560,287.138712,9877.571693
22807.223056,708.275490,-1339.980656,9360.722011
22807.225603,-2833.101958,-612.562586,9092.725880
22807.228151,-172.283227,-267.996131,9475.577496
22807.230698,-2335.394858,2258.824534,10279.565890
22807.233246,1722.832272,-1703.689691,9226.723946
22807.235794,-1435.693560,1933.400661,10011.569758
22807.238341,-3924.229064,-1914.258080,8748.159426
22807.240889,1665.404530,689.132909,9762.716208
22807.243437,-5608.776174,3771.088418,10375.278794
22807.245984,1205.982590,-6680.760699,7101.897477
22807.248532,-1071.984525,6412.764568,10872.985894
22807.251079,-1339.980656,4881.358104,10853.843314
22807.253627,2545.963246,-8365.307810,8250.452325
22807.256175,1205.982590,-2143.969050,8575.876198
22807.258722,-2258.824534,7235.895542,11542.976222
22807.261270,918.843878,-3924.229064,8461.020714
22807.263817,516.849682,-593.420005,8958.727814
22807.266365,133.998066,7025.327154,11179.267187
22807.268913,153.140646,-1225.125171,8805.587168
22807.271460,421.136778,-1282.552914,8843.872330
22807.274008,-95.712904,3062.812928,10298.708470
22807.276556,-459.421939,287.138712,9418.149754
22807.279103,-669.990328,-1263.410333,8920.442653
22807.281651,-1129.412267,2297.109696,10126.425243
22807.284198,593.420005,1167.697429,10107.282662
22807.286746,-38.285162,401.994197,9379.864592
22807.289294,-1607.976787,784.845813,9284.151688
22807.291841,-1875.972918,-1569.691626,9188.438784
22807.294389,-1856.830338,1722.832272,10145.567824
22807.296936,-2699.103893,-1435.693560,9111.868461
22807.299484,2392.822600,1129.412267,9839.286531
22807.302008,-4881.358104,4632.504554,10356.136213
22807.304531,3273.381317,-7216.752962,7580.461997
22807.307055,1684.547110,4843.072942,10930.413637
22807.309578,-2488.535504,1933.400661,10202.995566
22807.312102,880.558717,-9226.723946,6776.473603
22807.314625,248.853550,6317.051664,11849.257515
22807.317149,-57.427742,2565.105827,10777.272990
22807.319672,459.421939,-5742.774240,7618.747158
22807.322196,1780.260014,-1071.984525,8863.014910
22807.324719,-727.418070,6910.471669,11715.259450
22807.327243,1359.123237,-4728.217458,8307.880067
22807.329766,1531.406464,-2105.683888,8729.016845
22807.332290,937.986459,5340.780043,11370.692995
22807.334813,784.845813,-1416.550979,9226.723946
22807.337337,1129.412267,-2622.533570,8614.161360
22807.339860,306.281293,3235.096155,10413.563955
22807.342384,765.703232,497.707101,9705.288466
22807.344907,1454.836141,-2411.965181,8939.585234
22807.347431,267.996131,593.420005,9762.716208
22807.349954,114.855485,1244.267752,9954.142016
22807.352478,593.420005,-1091.127106,9379.864592
22807.355001,918.843878,1569.691626,9820.143950
22807.357525,-574.277424,248.853550,9667.003304
22807.360048,1665.404530,382.851616,9686.145885
22807.362572,-1071.984525,-631.705166,9399.007173
22807.365095,2603.390989,1033.699363,9896.714274
22807.367619,-5379.065205,1627.119368,9513.862658
22807.370142,1646.261949,-4747.360038,8307.880067
22807.372666,-497.707101,7637.889739,11715.259450
22807.375189,-2182.254211,2507.678085,10068.997501
22807.377713,1397.408398,-6814.758765,6872.186507
22807.380236,-248.853550,8729.016845,11849.257515
22807.382760,-2392.822600,7637.889739,12059.825904
22807.385283,-669.990328,-7637.889739,7044.469734
22807.387807,-114.855485,1225.125171,9590.432981
22807.390330,-708.275490,6814.758765,11734.402030
22807.392854,1033.699363,-4536.791650,8135.596840
22807.395377,535.992262,1359.123237,9245.866526
22807.397901,-861.416136,4900.500685,10834.700733
22807.400424,-459.421939,-2852.244539,8633.303941
22807.402954,-497.707101,-306.281293,9207.581365
22807.405485,-1263.410333,3330.809059,10356.136213
22807.408015,-1301.695494,-765.703232,8977.870395
22807.410545,1646.261949,823.130974,9647.860723
22807.413075,746.560651,3905.086483,10375.278794
22807.415605,-2392.822600,1818.545176,9667.003304
22807.418135,-593.420005,-3847.658741,8212.167163
22807.420665,-2277.967115,3311.666478,10222.138147
22807.423195,-1263.410333,-937.986459,9245.866526
22807.425725,1952.543242,191.425808,9322.436850
22807.428255,-3866.801322,2354.537438,9954.142016
22807.430785,5436.492947,-3158.525832,9054.440718
22807.433315,-459.421939,5589.633594,11236.694930
22807.435845,-631.705166,-4709.074877,8154.739421
22807.438375,287.138712,-4249.652938,8039.883936
22807.440905,-612.562586,8001.598774,12308.679454
22807.443436,823.130974,-4555.934230,8614.161360
22807.445966,1091.127106,-7121.040058,6967.899411
22807.448496,957.129040,4900.500685,10681.560086
22807.451026,-421.136778,3694.518094,10872.985894
22807.453556,1263.410333,-6987.041992,7542.176835
22807.456086,229.710970,1780.260014,9992.427178
22807.458616,-248.853550,3885.943902,10949.556218
22807.461146,1263.410333,-3885.943902,8422.735552
22807.463676,803.988394,306.281293,9360.722011
22807.466206,19.142581,2967.100024,10356.136213
22807.468736,1071.984525,-1741.974853,8939.585234
22807.471266,1320.838075,-631.705166,9494.720077
22807.473796,114.855485,1320.838075,10107.282662
22807.476326,459.421939,-1244.267752,9743.573627
22807.478856,-612.562586,-2565.105827,8824.729749
22807.481386,1435.693560,937.986459,9590.432981
22807.483917,-1339.980656,2565.105827,10298.708470
22807.486447,2909.672282,-2105.683888,8977.870395
22807.488977,-2392.822600,-76.570323,9360.722011
22807.491507,1339.980656,95.712904,9590.432981
22807.494037,-2641.676150,4153.940034,10643.274925
22807.496567,-2373.680019,-4307.080680,8078.169098
22807.499097,2928.814862,880.558717,9513.862658
22807.501627,-2373.680019,9686.145885,12059.825904
22807.504162,459.421939,-7140.182638,7044.469734
22807.506698,593.420005,-114.855485,9226.723946
22807.509233,-918.843878,8097.311678,11944.970419
22807.511768,-3139.383251,-172.283227,9418.149754
22807.514303,650.847747,-6719.045861,7101.897477
22807.516839,-1014.556782,6910.471669,11447.263318
22807.519374,-631.705166,1933.400661,10298.708470
22807.521909,478.564520,-4823.930362,7561.319416
22807.524444,-229.710970,4498.506488,10624.132344
22807.526980,-1225.125171,2335.394858,10260.423309
22807.529515,-382.851616,-3732.803256,8212.167163
22807.532050,-1416.550979,2545.963246,9877.571693
22807.534586,267.996131,3732.803256,10604.989763
22807.537121,382.851616,-1818.545176,8977.870395
22807.539656,153.140646,-248.853550,9169.296203
22807.542191,-191.425808,2029.113565,9896.714274
22807.544727,-3503.092286,3369.094221,10394.421374
22807.547262,2354.537438,-4000.799387,8518.448456
22807.549797,-612.562586,4192.225195,10336.993632
22807.552332,574.277424,-689.132909,9188.438784
22807.554868,4326.223261,1569.691626,10202.995566
22807.557403,-3215.953574,2009.970984,10241.280728
22807.559938,3081.955509,-7178.467800,7618.747158
22807.562473,-1435.693560,6183.053598,11236.694930
22807.565009,325.423874,823.130974,9896.714274
22807.567544,2143.969050,-8384.450390,7121.040058
22807.570079,803.988394,6776.473603,11542.976222
22807.572615,-1550.549045,8920.442653,12098.111066
22807.575150,191.425808,-5953.342629,7791.030386
22807.577685,1167.697429,-2641.676150,8690.731683
22807.580220,-574.277424,7063.612315,11791.829773
22807.582756,535.992262,-4249.652938,8403.592971
22807.585291,995.414202,-2794.816797,8556.733618
22807.587826,76.570323,5187.639397,11236.694930
22807.590361,210.568389,-995.414202,9245.866526
22807.592897,1378.265818,-2469.392923,8652.446522
22807.595432,1205.982590,3139.383251,10681.560086
22807.597967,-38.285162,-440.279358,9647.860723
22807.600502,631.705166,-3369.094221,8614.161360
22807.603038,-229.710970,1416.550979,10088.140082
22807.605577,937.986459,2124.826469,10030.712339
22807.608117,-1186.840010,765.703232,9743.573627
22807.610656,3369.094221,-1990.828403,8958.727814
22807.613195,-2297.109696,1473.978722,9839.286531
22807.615735,440.279358,-1091.127106,9226.723946
22807.618274,-1703.689691,3732.803256,10566.704602
22807.620813,-3024.527766,-2316.252277,8671.589102
22807.623353,3081.955509,-1186.840010,8863.014910
22807.625892,-2086.541307,9762.716208,12021.540742
22807.628432,191.425808,-4996.213589,7791.030386
22807.630971,555.134843,-2469.392923,8518.448456
22807.633510,-1799.402595,8461.020714,12308.679454
22807.636050,-3311.666478,-6163.911018,10202.995566
22807.638589,363.709035,-7063.612315,7101.897477
22807.641129,-708.275490,5379.065205,10892.128475
22807.643668,-689.132909,4268.795518,10834.700733
22807.646207,-440.279358,-5111.069074,7542.176835
22807.648747,-478.564520,2201.396792,9896.714274
22807.651286,-1167.697429,3981.656806,10662.417506
22807.653826,-1378.265818,-3062.812928,8499.305875
22807.656365,-1205.982590,861.416136,9399.007173
22807.658904,306.281293,3369.094221,10432.706536
22807.661444,1071.984525,-555.134843,9322.436850
22807.663983,-1282.552914,248.853550,9169.296203
22807.666523,-1282.552914,535.992262,9628.718142
22807.669062,-2086.541307,2258.824534,9858.429112
22807.671601,-1684.547110,-1895.115499,8939.585234
22807.674141,2890.529701,2105.683888,10011.569758
22807.676680,-4019.941968,2603.390989,9992.427178
22807.679219,4268.795518,-6393.621987,7925.028451
22807.681759,1052.841944,5991.627790,11389.835576
22807.684298,-1454.836141,-1378.265818,9303.294269
22807.686838,574.277424,-8288.737486,6967.899411
22807.689377,229.710970,8422.735552,12232.109131
22807.691916,325.423874,516.849682,10222.138147
22807.694456,2431.107762,-7235.895542,7025.327154
22807.696995,95.712904,9111.868461,12059.825904
22807.699535,-937.986459,76.570323,12098.111066
22807.702074,842.273555,-7216.752962,7561.319416
22807.704613,995.414202,-1607.976787,8805.587168
22807.707157,727.418070,7427.321350,11887.542677
22807.709700,593.420005,-3407.379382,8786.444587
22807.712243,708.275490,-3407.379382,8365.307810
22807.714787,153.140646,5206.781978,10930.413637
22807.717330,153.140646,-1014.556782,9226.723946
22807.719873,516.849682,-3522.234867,8480.163294
22807.722417,574.277424,3101.098090,10643.274925
22807.724960,746.560651,-1110.269686,9533.005238
22807.727503,1301.695494,-401.994197,9303.294269
22807.730047,114.855485,1607.976787,9896.714274
22807.732590,2277.967115,1607.976787,10011.569758
22807.735133,-1722.832272,-1914.258080,8939.585234
22807.737677,2986.242605,535.992262,9609.575562
22807.740220,-3885.943902,4575.076811,10681.560086
22807.742763,-344.566454,-5972.485210,7867.600709
22807.745306,1397.408398,4441.078746,10662.417506
22807.747850,-2086.541307,7695.317482,11523.833642
22807.750393,1378.265818,-8537.591037,6470.192310
22807.752936,421.136778,4211.367776,10336.993632
22807.755480,-1856.830338,5857.629725,11600.403965
22807.758023,-153.140646,-9399.007173,6604.190376
22807.760566,-153.140646,4307.080680,10432.706536
22807.763110,-1684.547110,6010.770371,11389.835576
22807.765653,133.998066,-516.849682,9399.007173
22807.768196,-440.279358,-4364.508422,7714.460062
22807.770740,-765.703232,4843.072942,10777.272990
22807.773283,-1550.549045,1837.687757,9992.427178
22807.775826,-1205.982590,-3388.236802,8307.880067
22807.778370,-38.285162,3426.521963,10241.280728
22807.780913,-133.998066,2641.676150,10317.851051
22807.783456,880.558717,-3043.670347,8365.307810
22807.786000,-535.992262,3005.385186,10011.569758
22807.788543,-2335.394858,1110.269686,9896.714274
22807.791086,-2335.394858,-1971.685822,8652.446522
22807.793630,-995.414202,-76.570323,9245.866526
22807.796173,3426.521963,3101.098090,10317.851051
22807.798716,-2756.531635,3656.232933,10432.706536
22807.801259,1665.404530,-9284.151688,6948.756830
22807.803803,2373.680019,3885.943902,10777.272990
22807.806346,-3101.098090,5283.352301,11351.550414
22807.808892,1071.984525,-11045.269122,6297.909083
22807.811439,1684.547110,4517.649069,10892.128475
22807.813985,153.140646,7465.606512,12174.681389
22807.816531,1684.547110,-9552.147819,6470.192310
22807.819078,1895.115499,4670.789715,10777.272990
22807.821624,-1799.402595,6010.770371,11638.689126
22807.824171,1091.127106,-9475.577496,6776.473603
22807.826717,172.283227,1454.836141,9628.718142
22807.829264,363.709035,6068.198114,11294.122672
22807.831810,440.279358,784.845813,10164.710405
22807.834356,899.701298,-5053.641331,7905.885870
22807.836903,937.986459,2947.957443,10298.708470
22807.839449,-57.427742,2584.248408,10375.278794
22807.841996,-0.000000,-4192.225195,8403.592971
22807.844542,2450.250342,114.855485,9934.999435
22807.847089,-2297.109696,3215.953574,10490.134278
22807.849635,631.705166,-4421.936165,8059.026517
22807.852181,-1071.984525,1091.127106,9609.575562
22807.854728,2182.254211,2641.676150,10547.562021
22807.857274,-2182.254211,-1799.402595,8863.014910
22807.859821,-3579.662610,-5627.918755,7331.608446
22807.862367,3235.096155,2316.252277,10202.995566
22807.864913,-5953.342629,7331.608446,11562.118803
22807.867460,153.140646,-9915.856854,6240.481341
22807.870006,-38.285162,5015.356170,10451.849117
22807.872553,-2048.256146,9973.284597,12595.818166
22807.875099,765.703232,-10547.562021,6412.764568
22807.877646,1493.121302,1990.828403,9954.142016
22807.880192,-3675.375514,8288.737486,12078.968485
22807.882738,-421.136778,-9265.009107,6623.332957
22807.885285,-172.283227,1493.121302,9494.720077
22807.887831,-1761.117434,8441.878133,12040.683323
22807.890378,-76.570323,-5187.639397,7752.745224
22807.892924,-153.140646,-5053.641331,7599.604578
22807.895470,-1110.269686,4594.219392,10585.847182
22807.898017,-1359.123237,2469.392923,10164.710405
22807.900563,-153.140646,-4441.078746,8078.169098
22807.903110,325.423874,2163.111630,9973.284597
22807.905656,-1493.121302,4689.932296,10662.417506
22807.908203,-995.414202,-4594.219392,8020.741355
22807.910728,-2737.389054,746.560651,9303.294269
22807.913253,-784.845813,2775.674216,10336.993632
22807.915778,861.416136,1531.406464,9686.145885
22807.918303,-1837.687757,-2756.531635,8403.592971
22807.920828,5838.487144,1129.412267,10547.562021
22807.923353,1071.984525,6393.621987,12021.540742
22807.925878,-1837.687757,-1895.115499,9111.868461
22807.928403,1435.693560,-9533.005238,6546.762634
22807.930927,-95.712904,10049.854920,12882.956878
22807.933452,19.142581,1129.412267,10336.993632
22807.935977,2622.533570,-8997.012976,6355.336826
22807.938502,229.710970,10470.991698,12442.677520
22807.941027,-1569.691626,535.992262,9992.427178
22807.943552,1799.402595,-10298.708470,6451.049730
22807.946077,-803.988394,7331.608446,11485.548480
22807.948602,-382.851616,2316.252277,10432.706536
22807.951127,1550.549045,-7676.174901,7389.036189
22807.953652,535.992262,4249.652938,10968.698798
22807.956177,-708.275490,6374.479406,11370.692995
22807.958702,-191.425808,-3215.953574,8575.876198
22807.961227,899.701298,-2526.820666,8824.729749
22807.963752,1780.260014,3924.229064,11160.124606
22807.966277,-497.707101,-344.566454,9494.720077
22807.968802,746.560651,-3713.660675,8269.594906
22807.971327,-823.130974,3905.086483,10547.562021
22807.973852,1971.685822,-631.705166,9839.286531
22807.976377,191.425808,746.560651,9609.575562
22807.978902,-3598.805190,-1607.976787,8480.163294
22807.981427,2813.959378,1799.402595,10030.712339
22807.983952,-5647.061336,4785.645200,10643.274925
22807.986477,133.998066,-8020.741355,6853.043926
22807.989002,1569.691626,-4594.219392,7446.463931
22807.991527,-593.420005,11485.548480,12806.386555
22807.994052,-650.847747,-3388.236802,8824.729749
22807.996577,1914.258080,-7331.608446,7101.897477
22807.999102,-2469.392923,10834.700733,12672.388490
22808.001627,-1856.830338,-2469.392923,8863.014910
22808.004152,1397.408398,-5953.342629,7331.608446
22808.006677,-861.416136,10490.134278,12500.105262
22808.009202,-880.558717,287.138712,9590.432981
22808.011733,248.853550,-5819.344563,7331.608446
22808.014264,-1856.830338,7312.465866,11255.837510
22808.016795,-1225.125171,-95.712904,9513.862658
22808.019326,1110.269686,-4479.363907,8269.594906
22808.021857,-803.988394,1091.127106,9456.434915
22808.024388,76.570323,4613.361973,10777.272990
22808.026919,-1875.972918,-2009.970984,8882.157491
22808.029450,1397.408398,861.416136,9743.573627
22808.031980,-3120.240670,4249.652938,10413.563955
22808.034511,2660.818731,-3847.658741,8212.167163
22808.037042,1914.258080,5398.207786,11236.694930
22808.039573,-1914.258080,-2718.246474,9035.298138
22808.042104,3560.520029,-6489.334891,7867.600709
22808.044635,-2775.674216,9647.860723,12423.534939
22808.047166,-172.283227,-4517.649069,8346.165229
22808.049697,2679.961312,-6431.907149,7542.176835
22808.052228,1646.261949,5608.776174,10892.128475
22808.054759,-2928.814862,6814.758765,11389.835576
22808.057290,1990.828403,-10126.425243,6336.194245
22808.059821,823.130974,4307.080680,10872.985894
22808.062351,-459.421939,5091.926493,11523.833642
22808.064882,1493.121302,-8748.159426,6680.760699
22808.067413,1014.556782,2603.390989,10260.423309
22808.069944,-133.998066,4536.791650,11389.835576
22808.072475,957.129040,-6585.047795,7523.034254
22808.075006,38.285162,2316.252277,9724.431046
22808.077537,-306.281293,4230.510357,10853.843314
22808.080068,2756.531635,-5053.641331,8499.305875
22808.082599,57.427742,-2239.681954,8843.872330
22808.085130,-325.423874,1799.402595,9954.142016
22808.087661,-1129.412267,555.134843,9571.290400
22808.090191,2967.100024,-1818.545176,9284.151688
22808.092722,-1703.689691,3062.812928,10202.995566
22808.095253,-2297.109696,-4173.082614,7810.172966
22808.097784,1512.263883,4153.940034,10490.134278
22808.100315,-5608.776174,3732.803256,10394.421374
22808.102846,1799.402595,-9418.149754,6470.192310
22808.105377,-1339.980656,9054.440718,11676.974288
22808.107908,-1684.547110,5130.211654,11006.983960
22808.110439,899.701298,-11006.983960,5953.342629
22808.112974,823.130974,7484.749093,11791.829773
22808.115510,-3388.236802,11504.691061,12825.529136
22808.118046,-1263.410333,-7427.321350,7140.182638
22808.120582,842.273555,-2220.539373,8288.737486
22808.123117,-2048.256146,10987.841379,12768.101394
22808.125653,-325.423874,-3905.086483,8461.020714
22808.128189,-210.568389,-2239.681954,8384.450390
22808.130724,-2067.398726,8231.309744,11562.118803
22808.133260,-459.421939,-4575.076811,8116.454259
22808.135796,1282.552914,-1282.552914,9111.868461
22808.138331,-2584.248408,6527.620053,11313.265253
22808.140867,1129.412267,-3464.807125,8441.878133
22808.143403,-1339.980656,306.281293,9322.436850
22808.145938,1033.699363,5781.059402,10624.132344
22808.148474,-1741.974853,3885.943902,10375.278794
22808.151010,1320.838075,-6374.479406,7427.321350
22808.153546,4670.789715,6489.334891,11906.685258
22808.156081,-3101.098090,2431.107762,10719.845248
22808.158617,3694.518094,-12423.534939,6144.768437
22808.161153,-669.990328,8748.159426,11925.827838
22808.163688,-1148.554848,2756.531635,10470.991698
22808.166224,1837.687757,-12270.394293,5742.774240
22808.168760,1225.125171,8958.727814,12059.825904
22808.171295,-2258.824534,4230.510357,10758.130410
22808.173831,2201.396792,-10183.852986,6183.053598
22808.176367,669.990328,7025.327154,11715.259450
22808.178902,-1205.982590,8748.159426,12480.962682
22808.181438,1282.552914,-4517.649069,8231.309744
22808.183974,1684.547110,-2813.959378,8595.018779
22808.186510,363.709035,5608.776174,11600.403965
22808.189045,38.285162,-2909.672282,8786.444587
22808.191581,229.710970,-1512.263883,8671.589102
22808.194117,229.710970,4019.941968,10738.987829
22808.196652,2029.113565,-2909.672282,9226.723946
22808.199188,1244.267752,497.707101,9705.288466
22808.201724,-0.000000,1799.402595,10030.712339
22808.204259,478.564520,-1129.412267,9131.011042
22808.206795,1148.554848,-1320.838075,9418.149754
22808.209331,1397.408398,4632.504554,10260.423309
22808.211866,-4345.365842,3924.229064,10183.852986
22808.214407,784.845813,-6355.336826,7599.604578
22808.216947,440.279358,7389.036189,11562.118803
22808.219487,-2201.396792,5379.065205,11064.411702
22808.222027,1244.267752,-9686.145885,6106.483275
22808.224567,248.853550,7063.612315,11198.409768
22808.227108,-1875.972918,4594.219392,11198.409768
22808.229648,784.845813,-11160.124606,6144.768437
22808.232188,-133.998066,7216.752962,11542.976222
22808.234728,-3215.953574,4594.219392,10853.843314
22808.237268,2009.970984,-8556.733618,6623.332957
22808.239809,-631.705166,6278.766502,10930.413637
22808.242349,-2201.396792,8767.302006,11906.685258
22808.244889,-2105.683888,-3311.666478,8269.594906
22808.247429,1091.127106,-2373.680019,8518.448456
22808.249969,-325.423874,7312.465866,11830.114934
22808.252509,-593.420005,-3081.955509,8652.446522
22808.255050,1033.699363,-1397.408398,8920.442653
22808.257590,-1952.543242,6010.770371,11198.409768
22808.260130,-497.707101,-1148.554848,8958.727814
22808.262670,-2392.822600,-2067.398726,8461.020714
22808.265210,2660.818731,4728.217458,10872.985894
22808.267751,-2354.537438,2852.244539,10202.995566
22808.270291,1741.974853,-10298.708470,6585.047795
22808.272831,2718.246474,4728.217458,11160.124606
22808.275371,-2431.107762,11408.978157,13150.953010
22808.277911,-421.136778,-5857.629725,7829.315547
22808.280452,2660.818731,-6929.614250,7197.610381
22808.282992,842.273555,12768.101394,13495.519464
22808.285532,-899.701298,-3694.518094,8346.165229
22808.288072,2737.389054,-5991.627790,7350.751027
22808.290612,-1531.406464,10049.854920,12729.816232
22808.293152,-76.570323,-4058.227130,8843.872330
22808.295693,1091.127106,-7293.323285,7006.184573
22808.298233,765.703232,7963.313613,11810.972354
22808.300773,229.710970,-861.416136,9628.718142
22808.303313,1799.402595,-6355.336826,7791.030386
22808.305853,-19.142581,38.285162,9111.868461
22808.308394,229.710970,5723.631659,11255.837510
22808.310934,478.564520,-5551.348432,8288.737486
22808.313474,2392.822600,-612.562586,9341.579430
22808.316018,-746.560651,5302.494882,11255.837510
22808.318562,1071.984525,-3005.385186,8709.874264
22808.321105,574.277424,-3503.092286,8614.161360
22808.323649,2545.963246,7599.604578,11868.400096
22808.326193,-5589.633594,-708.275490,8824.729749
22808.328737,3215.953574,-7216.752962,7235.895542
22808.331280,-1818.545176,13093.525267,13227.523333
22808.333824,-2565.105827,229.710970,9705.288466
22808.336368,1971.685822,-10088.140082,5781.059402
22808.338912,957.129040,1167.697429,9265.009107
22808.341456,-2507.678085,11006.983960,13112.667848
22808.343999,-172.283227,-11542.976222,6144.768437
22808.346543,1588.834206,2297.109696,9992.427178
22808.349087,-3330.809059,10164.710405,12557.533005
22808.351631,918.843878,-9131.011042,6604.190376
22808.354175,382.851616,1473.978722,9418.149754
22808.356718,-2603.390989,8997.012976,12174.681389
22808.359262,-535.992262,-6565.905214,7274.180704
22808.361806,497.707101,1244.267752,9360.722011
22808.364350,-574.277424,5685.346498,11447.263318
22808.366893,-669.990328,-4249.652938,8173.882002
22808.369437,-363.709035,114.855485,7982.456194
22808.371981,-2871.387120,4632.504554,10470.991698
22808.374525,459.421939,650.847747,9647.860723
22808.377069,-899.701298,1091.127106,9341.579430
22808.379612,153.140646,-1627.119368,8786.444587
22808.382156,5283.352301,4383.651003,11332.407834
22808.384700,-2947.957443,803.988394,10202.995566
22808.387244,3924.229064,-9820.143950,6872.186507
22808.389788,-478.564520,6872.186507,11657.831707
22808.392331,-1473.978722,2794.816797,10356.136213
22808.394875,1761.117434,-11408.978157,5895.914886
22808.397419,1454.836141,8709.874264,12059.825904
22808.399963,-2392.822600,4134.797453,10738.987829
22808.402506,842.273555,-6891.329088,7523.034254
22808.405050,1952.543242,-3771.088418,8441.878133
22808.407594,-1378.265818,8154.739421,12117.253646
22808.410138,248.853550,-4632.504554,8059.026517
22808.412682,2239.681954,-2986.242605,8480.163294
22808.415225,210.568389,6317.051664,11810.972354
22808.417772,-287.138712,-3177.668413,8633.303941
22808.420319,344.566454,-2450.250342,8499.305875
22808.422865,1473.978722,4996.213589,11140.982026
22808.425412,-861.416136,-1339.980656,9379.864592
22808.427959,1397.408398,-4728.217458,8020.741355
22808.430505,-1397.408398,4689.932296,10872.985894
22808.433052,1952.543242,-133.998066,10758.130410
22808.435599,-57.427742,19.142581,9513.862658
22808.438145,-3464.807125,-3675.375514,7752.745224
22808.440692,2947.957443,3483.949706,10279.565890
22808.443239,-5608.776174,6431.907149,11045.269122
22808.445785,-57.427742,-9092.725880,6374.479406
22808.448332,38.285162,4919.643266,10662.417506
22808.450878,-2029.113565,8997.012976,12385.249778
22808.453425,306.281293,-10164.710405,6278.766502
22808.455972,1722.832272,2373.680019,9954.142016
22808.458518,-3809.373579,7389.036189,11772.687192
22808.461065,803.988394,-9418.149754,6585.047795
22808.463612,-19.142581,4517.649069,10394.421374
22808.466158,-2545.963246,10528.419440,12385.249778
22808.468705,-1435.693560,-2469.392923,8901.300072
22808.471252,2182.254211,-2699.103893,8346.165229
22808.473798,-1473.978722,8920.442653,11944.970419
22808.476345,-76.570323,-5034.498750,7982.456194
22808.478892,-708.275490,-1588.834206,8729.016845
22808.481438,-918.843878,7216.752962,11734.402030
22808.483985,-1550.549045,-3369.094221,8556.733618
22808.486532,2373.680019,133.998066,9284.151688
22808.489078,-3330.809059,7235.895542,11294.122672
22808.491625,2297.109696,-5876.772306,7542.176835
22808.494172,1780.260014,4402.793584,10777.272990
22808.496718,-2316.252277,306.281293,9934.999435
22808.499265,3579.662610,-9475.577496,7274.180704
22808.501811,976.271621,1071.984525,9858.429112
22808.504358,-1741.974853,7446.463931,11753.544611
22808.506905,574.277424,-10317.851051,6355.336826
22808.509451,2143.969050,3675.375514,10394.421374
22808.511998,-2048.256146,8173.882002,11944.970419
22808.514545,1627.119368,-9265.009107,6565.905214
22808.517091,1301.695494,2124.826469,10260.423309
22808.519618,-191.425808,6719.045861,12098.111066
22808.522145,1014.556782,-7733.602643,7121.040058
22808.524673,1895.115499,248.853550,9360.722011
22808.527200,-172.283227,5953.342629,11657.831707
22808.529727,-727.418070,287.138712,9781.858789
22808.532254,708.275490,-4613.361973,7867.600709
22808.534781,918.843878,3177.668413,10547.562021
22808.537308,1205.982590,2469.392923,10528.419440
22808.539835,1167.697429,-4058.227130,8403.592971
22808.542362,19.142581,1741.974853,9934.999435
22808.544889,1627.119368,612.562586,10222.138147
22808.547416,497.707101,1684.547110,10107.282662
22808.549943,-4613.361973,-3215.953574,8020.741355
22808.552470,3617.947771,555.134843,9571.290400
22808.554997,-5417.350366,9054.440718,11753.544611
22808.557524,-382.851616,-7637.889739,6814.758765
22808.560051,746.560651,1186.840010,6470.192310
22808.562578,-191.425808,10566.704602,12423.534939
22808.565105,-1895.115499,1167.697429,10011.569758
22808.567633,2277.967115,-10164.710405,6355.336826
22808.570160,-1263.410333,9686.145885,12327.822035
22808.572687,-2545.963246,382.851616,9743.573627
22808.575214,1320.838075,-6623.332957,7044.469734
22808.577741,-1799.402595,8671.589102,11676.974288
22808.580268,-1837.687757,918.843878,9839.286531
22808.582795,861.416136,-5436.492947,7618.747158
22808.585322,-133.998066,7101.897477,11332.407834
22808.587849,-803.988394,-153.140646,9437.292334
22808.590376,-306.281293,-3694.518094,8212.167163
22808.592903,-1359.123237,-114.855485,9245.866526
22808.595430,-1837.687757,5130.211654,10662.417506
22808.597957,-1684.547110,-4000.799387,8097.311678
22808.600484,2009.970984,3464.807125,10183.852986
22808.603011,-4479.363907,3330.809059,10202.995566
22808.605538,5206.781978,-7771.887805,7618.747158
22808.608065,631.705166,6565.905214,11696.116869
22808.610593,-248.853550,-2679.961312,9092.725880
22808.613120,1225.125171,-8882.157491,6891.329088
22808.615647,-574.277424,10528.419440,12614.960747
22808.618174,-689.132909,-1186.840010,9437.292334
22808.620685,2488.535504,-7140.182638,6948.756830
22808.623195,-669.990328,10566.704602,12461.820101
22808.625706,-2622.533570,7561.319416,11944.970419
22808.628217,823.130974,-10241.280728,6738.188442
22808.630728,1646.261949,1588.834206,9762.716208
22808.633238,-612.562586,7465.606512,11830.114934
22808.635749,2086.541307,-8843.872330,7159.325219
22808.638260,1339.980656,1684.547110,10049.854920
22808.640771,-1627.119368,6585.047795,11600.403965
22808.643282,2277.967115,-7542.176835,7427.321350
22808.645792,-172.283227,2220.539373,10030.712339
22808.648303,76.570323,3464.807125,10719.845248
22808.650814,-38.285162,-5417.350366,8001.598774
22808.653325,2450.250342,1550.549045,9973.284597
22808.655835,-2029.113565,2584.248408,11428.120738
22808.658346,-2928.814862,-5034.498750,7848.458128
22808.660857,2431.107762,401.994197,9303.294269
22808.663368,-6163.911018,8250.452325,11466.405899
22808.665879,899.701298,-8690.731683,6470.192310
22808.668389,-191.425808,5034.498750,10604.989763
22808.670900,-1856.830338,7944.171032,12136.396227
22808.673411,-76.570323,-10528.419440,6355.336826
22808.675922,-76.570323,3962.514226,10298.708470
22808.678433,-2526.820666,5455.635528,11274.980091
22808.680943,1186.840010,-8288.737486,6929.614250
22808.683454,57.427742,4881.358104,10604.989763
22808.685965,-2488.535504,5800.201982,11140.982026
22808.688476,-1186.840010,-2584.248408,8633.303941
22808.690986,689.132909,-2756.531635,8384.450390
22808.693497,-727.418070,7235.895542,11523.833642
22808.696008,-267.996131,-2488.535504,8709.874264
22808.698519,-478.564520,-1454.836141,8805.587168
22808.701030,-1359.123237,3943.371645,10815.558152
22808.703540,-2316.252277,-746.560651,8939.585234
22808.706051,-19.142581,-2431.107762,8499.305875
22808.708562,172.283227,7159.325219,11294.122672
22808.711073,-2679.961312,-2488.535504,8595.018779
22808.713584,6355.336826,-3349.951640,8863.014910
22808.716094,-1282.552914,9245.866526,12595.818166
22808.718605,2029.113565,-9437.292334,10432.706536
22808.721124,1148.554848,-11562.118803,6106.483275
22808.723643,210.568389,9322.436850,12212.966550
22808.726162,-382.851616,3464.807125,10911.271056
22808.728680,2354.537438,-9934.999435,6163.911018
22808.731199,459.421939,8748.159426,11849.257515
22808.733718,-1416.550979,2373.680019,10432.706536
22808.736237,1875.972918,-9781.858789,6680.760699
22808.738756,-382.851616,5781.059402,11198.409768
22808.741275,784.845813,2507.678085,10356.136213
22808.743794,1875.972918,-6470.192310,7676.174901
22808.746312,229.710970,3579.662610,10681.560086
22808.748831,-516.849682,1818.545176,10183.852986
22808.751350,1225.125171,-3579.662610,8652.446522
22808.753869,1186.840010,918.843878,9781.858789
22808.756388,803.988394,2086.541307,10336.993632
22808.758907,363.709035,-2220.539373,8920.442653
22808.761425,2277.967115,-440.279358,9667.003304
22808.763944,-708.275490,4938.785846,11006.983960
22808.766463,-3847.658741,-5666.203917,7427.321350
22808.768982,3120.240670,1244.267752,9801.001370
22808.771501,-5704.489078,9475.577496,11849.257515
22808.774020,114.855485,-9169.296203,6221.338760
22808.776538,478.564520,3713.660675,10145.567824
22808.779057,-2009.970984,10624.132344,12997.812363
22808.781576,-1493.121302,-10872.985894,9379.864592
22808.784095,995.414202,-8269.594906,6719.045861
22808.786614,-1435.693560,9341.579430,12117.253646
22808.789133,-1435.693560,-1014.556782,9379.864592
22808.791651,727.418070,-5742.774240,7369.893608
22808.794170,-1722.832272,8729.016845,11791.829773
22808.796689,-1703.689691,-57.427742,9418.149754
22808.799208,1071.984525,-4096.512291,7982.456194
22808.801727,-765.703232,6470.192310,11140.982026
22808.804246,-1110.269686,-631.705166,9245.866526
22808.806765,784.845813,-2775.674216,8575.876198
22808.809283,-1282.552914,5321.637462,11026.126541
22808.811802,133.998066,306.281293,9456.434915
22808.814321,-1875.972918,-1320.838075,8767.302006
22808.816840,1646.261949,-1550.549045,8824.729749
22808.819359,2029.113565,7714.460062,11906.685258
22808.821884,-1761.117434,-4823.930362,8250.452325
22808.824410,4173.082614,-6221.338760,7982.456194
22808.826935,-1722.832272,9954.142016,12882.956878
22808.829461,-899.701298,-5379.065205,8154.739421
22808.831986,2201.396792,-6604.190376,7178.467800
22808.834512,1282.552914,12098.111066,13189.238171
22808.837037,-421.136778,-3043.670347,8537.591037
22808.839563,2699.103893,-5742.774240,7408.178770
22808.842089,-995.414202,9245.866526,12442.677520
22808.844614,-1186.840010,-2909.672282,11830.114934
22808.847140,497.707101,-8384.450390,6967.899411
22808.849665,2584.248408,1186.840010,9839.286531
22808.852191,-114.855485,6757.331022,12021.540742
22808.854716,1129.412267,-6661.618118,7771.887805
22808.857242,1990.828403,-229.710970,9494.720077
22808.859767,-2009.970984,6336.194245,11485.548480
22808.862293,-76.570323,-6431.907149,7657.032320
22808.864818,689.132909,-478.564520,9303.294269
22808.867344,1856.830338,5838.487144,11408.978157
22808.869869,-2029.113565,-4230.510357,8231.309744
22808.872395,1167.697429,-4383.651003,7963.313613
22808.874920,-2507.678085,11734.402030,13016.954944
22808.877446,-6642.475538,6680.760699,11255.837510
22808.879971,1780.260014,-11619.546546,5379.065205
22808.882497,325.423874,8901.300072,11657.831707
22808.885023,-2029.113565,7599.604578,12155.538808
22808.887548,-535.992262,-12595.818166,5608.776174
22808.890074,-440.279358,4957.928427,10624.132344
22808.892599,-2335.394858,5972.485210,11332.407834
22808.895125,1301.695494,-9169.296203,6642.475538
22808.897650,57.427742,4402.793584,10604.989763
22808.900176,-2641.676150,6585.047795,11485.548480
22808.902701,-401.994197,-6967.899411,7197.610381
22808.905227,210.568389,3866.801322,10336.993632
22808.907752,-1531.406464,5570.491013,10968.698798
22808.910278,-1569.691626,-1684.547110,8920.442653
22808.912803,1301.695494,-3330.809059,8441.878133
22808.915329,-1818.545176,6565.905214,11351.550414
22808.917854,880.558717,0.000000,9494.720077
22808.920380,-2316.252277,-2258.824534,8518.448456
22808.922911,2220.539373,2622.533570,10183.852986
22808.925443,-861.416136,5072.783912,10911.271056
22808.927974,-76.570323,-8786.444587,6967.899411
22808.930506,3771.088418,325.423874,9877.571693
22808.933037,-2660.818731,7925.028451,12480.962682
22808.935568,344.566454,-10432.706536,6604.190376
22808.938100,2526.820666,727.418070,9456.434915
22808.940631,1646.261949,11121.839445,12729.816232
22808.943163,-861.416136,1359.123237,10030.712339
22808.945694,2775.674216,-8595.018779,6738.188442
22808.948225,-344.566454,7963.313613,11925.827838
22808.950757,-976.271621,880.558717,10432.706536
22808.953288,1301.695494,-8346.165229,6738.188442
22808.955820,1550.549045,5723.631659,11160.124606
22808.958351,57.427742,2545.963246,10662.417506
22808.960882,1473.978722,-6719.045861,7618.747158
22808.963414,1301.695494,2890.529701,10432.706536
22808.965945,-1301.695494,4153.940034,10815.558152
22808.968477,229.710970,-6317.051664,7637.889739
22808.971008,382.851616,1091.127106,9743.573627
22808.973539,2488.535504,3273.381317,10643.274925
22808.976071,-784.845813,4153.940034,10815.558152
22808.978602,-4192.225195,-7580.461997,6853.043926
22808.981134,2833.101958,2603.390989,10222.138147
22808.983665,-6431.907149,8997.012976,11906.685258
22808.986196,440.279358,-10222.138147,5934.200048
22808.988728,1091.127106,4173.082614,10222.138147
22808.991259,-2029.113565,11332.407834,13208.380752
22808.993791,-574.277424,-11006.983960,6144.768437
22808.996322,-133.998066,344.566454,9131.011042
22808.998853,-2392.822600,8690.731683,12136.396227
22809.001385,1339.980656,-7044.469734,7523.034254
22809.003916,2297.109696,-5111.069074,7752.745224
22809.006448,-1646.261949,7580.461997,11466.405899
22809.008979,-1435.693560,-210.568389,9360.722011
22809.011510,210.568389,-3924.229064,7905.885870
22809.014042,-1091.127106,6163.911018,10987.841379
22809.016573,-1416.550979,363.709035,9533.005238
22809.019105,210.568389,-3924.229064,8231.309744
22809.021636,-2737.389054,4747.360038,10490.134278
22809.024173,401.994197,-516.849682,9284.151688
22809.026709,-880.558717,918.843878,9437.292334
22809.029246,-689.132909,-669.990328,9207.581365
22809.031783,5704.489078,2833.101958,10834.700733
22809.034320,-1856.830338,2488.535504,10490.134278
22809.036856,1052.841944,-6163.911018,8039.883936
22809.039393,1225.125171,-4977.071008,8020.741355
22809.041930,-2067.398726,10279.565890,12748.958813
22809.044467,-631.705166,-5934.200048,7925.028451
22809.047003,3177.668413,-3732.803256,8097.311678
22809.049540,-1225.125171,11045.269122,12787.243974
22809.052077,382.851616,-4977.071008,8097.311678
22809.054613,1473.978722,-4919.643266,7944.171032
22809.057150,-976.271621,7886.743290,12040.683323
22809.059687,382.851616,-2852.244539,8633.303941
22809.062224,2239.681954,-4077.369710,8288.737486
22809.064760,363.709035,5838.487144,11428.120738
22809.067297,784.845813,-1856.830338,10777.272990
22809.069834,-1110.269686,-4173.082614,8135.596840
22809.072371,-133.998066,-1033.699363,9016.155557
22809.074907,-325.423874,3158.525832,10719.845248
22809.077444,2641.676150,-1129.412267,9284.151688
22809.079981,-1780.260014,-2067.398726,8652.446522
22809.082517,1646.261949,421.136778,9647.860723
22809.085054,-3101.098090,6738.188442,11466.405899
22809.087591,-2718.246474,-6317.051664,7408.178770
22809.090128,2737.389054,1186.840010,9226.723946
22809.092664,-2335.394858,12308.679454,12959.527202
22809.095201,1282.552914,-8920.442653,6642.475538
22809.097738,497.707101,-1761.117434,8595.018779
22809.100274,-1225.125171,8078.169098,11676.974288
22809.102811,-2526.820666,2737.389054,10375.278794
22809.105348,1588.834206,-8307.880067,6872.186507
22809.107885,172.283227,5168.496816,10853.843314
22809.110421,-937.986459,5206.781978,11351.550414
22809.112958,-1493.121302,-5570.491013,7503.891674
22809.115495,-746.560651,1607.976787,9475.577496
22809.118032,-1205.982590,5551.348432,10892.128475
22809.120568,-650.847747,-2277.967115,8614.161360
22809.123105,-57.427742,-1397.408398,8863.014910
22809.125646,-1837.687757,4785.645200,10796.415571
22809.128187,918.843878,0.000000,9552.147819
22809.130728,-1837.687757,-401.994197,9513.862658
22809.133269,-1780.260014,-3196.810994,8365.307810
22809.135810,5953.342629,3254.238736,10949.556218
22809.138351,-1493.121302,4938.785846,11274.980091
22809.140892,3656.232933,-10796.415571,6565.905214
22809.143433,382.851616,2890.529701,10432.706536
22809.145974,-3273.381317,7350.751027,11810.972354
22809.148515,631.705166,-12327.822035,5608.776174
22809.151056,2852.244539,4651.647134,10719.845248
22809.153596,-1205.982590,8958.727814,12500.105262
22809.156137,2258.824534,-10164.710405,6508.477472
22809.158678,727.418070,2067.398726,10049.854920
22809.161219,-1454.836141,6795.616184,11849.257515
22809.163760,-57.427742,-593.420005,9494.720077
22809.166301,2143.969050,-6374.479406,7676.174901
22809.168842,937.986459,5895.914886,11523.833642
22809.171383,1148.554848,-19.142581,9915.856854
22809.173924,-574.277424,-4919.643266,7829.315547
22809.176465,-267.996131,2526.820666,10145.567824
22809.179006,-899.701298,957.129040,10011.569758
22809.181547,3637.090352,-3158.525832,8729.016845
22809.184088,-2143.969050,1703.689691,9820.143950
22809.186629,842.273555,-995.414202,9169.296203
22809.189170,-2565.105827,4709.074877,10853.843314
22809.191711,-3445.664544,-3024.527766,8250.452325
22809.194252,2718.246474,-746.560651,8786.444587
22809.196793,-248.853550,8575.876198,11696.116869
22809.199334,-1665.404530,3751.945837,10834.700733
22809.201875,-287.138712,-10164.710405,6297.909083
22809.204416,-1244.267752,6470.192310,11102.696864
22809.206957,-2392.822600,3579.662610,10528.419440
22809.209498,1473.978722,-7771.887805,7006.184573
22809.212039,-95.712904,4000.799387,10547.562021
22809.214579,-880.558717,4785.645200,11064.411702
22809.217120,-1339.980656,-4307.080680,8001.598774
22809.219661,-1110.269686,1550.549045,9437.292334
22809.222202,-1473.978722,4345.365842,10528.419440
22809.224743,191.425808,-1301.695494,8901.300072
22809.227288,-248.853550,-1435.693560,9073.583299
22809.229833,-1703.689691,2354.537438,9724.431046
22809.232378,-2354.537438,-267.996131,9341.579430
22809.234923,1607.976787,1397.408398,9934.999435
22809.237468,-4115.654872,976.271621,9418.149754
22809.240013,4843.072942,-5225.924558,8212.167163
22809.242558,1684.547110,6757.331022,11734.402030
22809.245103,-19.142581,-3120.240670,8958.727814
22809.247647,1148.554848,-8346.165229,7063.612315
22809.250192,-1971.685822,10738.987829,12787.243974
22809.252737,-842.273555,-2239.681954,9016.155557
22809.255282,3464.807125,-7369.893608,6948.756830
22809.257827,-114.855485,11006.983960,12825.529136
22809.260372,-2909.672282,6891.329088,11772.687192
22809.262917,172.283227,-9820.143950,6623.332957
22809.265462,842.273555,957.129040,9513.862658
22809.268007,421.136778,7082.754896,11868.400096
22809.270552,1646.261949,-6202.196179,8039.883936
22809.273096,1952.543242,-1129.412267,9399.007173
22809.275641,-1378.265818,4900.500685,11160.124606
22809.278186,-172.283227,-4019.941968,8269.594906
22809.280731,976.271621,-631.705166,9360.722011
22809.283276,555.134843,4536.791650,10987.841379
22809.285821,2947.957443,-4287.938099,8614.161360
22809.288366,1320.838075,3809.373579,10470.991698
22809.290911,-5685.346498,535.992262,10834.700733
22809.293456,306.281293,-6144.768437,7752.745224
22809.296001,-344.566454,6163.911018,10892.128475
22809.298546,-2105.683888,6585.047795,11121.839445
22809.301090,2947.957443,-8863.014910,6680.760699
22809.303635,382.851616,6929.614250,11313.265253
22809.306180,-2565.105827,4000.799387,10930.413637
22809.308725,-631.705166,-9111.868461,6470.192310
22809.311270,-555.134843,5493.920690,10853.843314
22809.313815,-325.423874,4517.649069,11045.269122
22809.316360,957.129040,-5455.635528,7791.030386
22809.318905,-1014.556782,2143.969050,9954.142016
22809.321450,-1761.117434,4402.793584,10547.562021
22809.323995,-1493.121302,459.421939,9418.149754
22809.326539,95.712904,-1167.697429,8843.872330
22809.329087,-535.992262,2584.248408,10202.995566
22809.331635,-1818.545176,689.132909,9437.292334
22809.334183,191.425808,-1588.834206,8843.872330
22809.336731,-1167.697429,4249.652938,10470.991698
22809.339280,-1914.258080,-3196.810994,8537.591037
22809.341828,6068.198114,937.986459,10088.140082
22809.344376,-1244.267752,6336.194245,11523.833642
22809.346924,3732.803256,-9475.577496,7082.754896
22809.349472,478.564520,1722.832272,10183.852986
22809.352020,-3196.810994,6565.905214,11485.548480
22809.354568,555.134843,-11006.983960,8633.303941
22809.357116,3445.664544,-6049.055533,7331.608446
22809.359664,76.570323,10719.845248,12768.101394
22809.362212,842.273555,-3101.098090,8901.300072
22809.364760,76.570323,-6029.912952,7408.178770
22809.367308,-823.130974,5666.203917,11160.124606
22809.369856,1148.554848,38.285162,9762.716208
22809.372404,1837.687757,-3598.805190,8671.589102
22809.374952,1550.549045,2277.967115,10470.991698
22809.377500,229.710970,-631.705166,9628.718142
22809.380048,-0.000000,-1014.556782,9016.155557
22809.382596,-535.992262,1091.127106,9973.284597
22809.385144,765.703232,153.140646,9590.432981
22809.387692,1244.267752,-1359.123237,8901.300072
22809.390240,3503.092286,3617.947771,10566.704602
22809.392788,-5781.059402,2105.683888,9820.143950
22809.395336,1148.554848,-6910.471669,7389.036189
22809.397884,-2431.107762,10068.997501,12117.253646
22809.400432,-1684.547110,2354.537438,9877.571693
22809.402980,3349.951640,-8288.737486,6604.190376
22809.405528,191.425808,10815.558152,12576.675586
22809.408076,-2182.254211,516.849682,9973.284597
22809.410624,-861.416136,-9016.155557,6297.909083
22809.413172,-899.701298,7561.319416,11370.692995
22809.415720,-382.851616,2660.818731,10604.989763
22809.418268,784.845813,-5819.344563,7542.176835
22809.420816,-1071.984525,-2565.105827,8461.020714
22809.423364,-1895.115499,5953.342629,10911.271056
22809.425912,-1952.543242,76.570323,9150.153622
22809.428460,478.564520,-1588.834206,8633.303941
22809.431010,-210.568389,3885.943902,10681.560086
22809.433561,-1646.261949,823.130974,9571.290400
22809.436111,-535.992262,-3388.236802,8135.596840
22809.438662,-133.998066,5379.065205,10796.415571
22809.441212,-3943.371645,-1167.697429,9111.868461
22809.443763,6489.334891,-4000.799387,8709.874264
22809.446313,287.138712,8729.016845,12193.823970
22809.448864,2086.541307,-6872.186507,7886.743290
22809.451414,746.560651,-10815.558152,6604.190376
22809.453964,-669.990328,7676.174901,11676.974288
22809.456515,-1129.412267,3215.953574,10662.417506
22809.459065,3330.809059,-9303.294269,6431.907149
22809.461616,937.986459,7714.460062,11753.544611
22809.464166,-497.707101,2067.398726,10528.419440
22809.466717,440.279358,-7695.317482,7044.469734
22809.469267,-899.701298,3330.809059,10202.995566
22809.471818,1033.699363,2239.681954,10356.136213
22809.474368,2086.541307,-3675.375514,8748.159426
22809.476918,2641.676150,1263.410333,10202.995566
22809.479469,-1378.265818,1091.127106,9858.429112
22809.482019,-459.421939,-3407.379382,8461.020714
22809.484570,-516.849682,-1186.840010,9245.866526
22809.487120,2909.672282,2737.389054,10470.991698
22809.489671,-1435.693560,-1167.697429,9054.440718
22809.492221,1665.404530,-3349.951640,8441.878133
22809.494772,-2622.533570,8575.876198,12002.398162
22809.497322,-4230.510357,-4211.367776,8135.596840
22809.499872,2679.961312,-2316.252277,8039.883936
22809.502423,-1569.691626,12921.242040,12902.099459
22809.504973,1301.695494,-6029.912952,7848.458128
22809.507524,650.847747,-4115.654872,7982.456194
22809.510074,-2431.107762,10566.704602,12825.529136
22809.512625,-2373.680019,-4575.076811,7791.030386
22809.515175,631.705166,-3483.949706,7274.180704
22809.517726,114.855485,2928.814862,10164.710405
22809.520276,38.285162,5072.783912,11255.837510
22809.522827,-1493.121302,-3349.951640,8288.737486
22809.525377,-1722.832272,401.994197,9054.440718
22809.527927,-2143.969050,5034.498750,10432.706536
22809.530478,172.283227,-1646.261949,8939.585234
22809.533030,-421.136778,-421.136778,9284.151688
22809.535582,1378.265818,4881.358104,10949.556218
22809.538135,-3388.236802,344.566454,9399.007173
22809.540687,1799.402595,-4938.785846,7867.600709
22809.543239,421.136778,7867.600709,11830.114934
22809.545791,-1033.699363,-3905.086483,8690.731683
22809.548343,4498.506488,-10796.415571,6604.190376
22809.550896,612.562586,4268.795518,10968.698798
22809.553448,-3483.949706,4766.502619,11064.411702
22809.556000,1091.127106,-11504.691061,5876.772306
22809.558552,2048.256146,7542.176835,11447.263318
22809.561105,114.855485,5130.211654,11160.124606
22809.563657,2852.244539,-9073.583299,6910.471669
22809.566209,-1167.697429,3694.518094,10585.847182
22809.568761,-1091.127106,3311.666478,10777.272990
22809.571314,689.132909,-4977.071008,7791.030386
22809.573866,1914.258080,1856.830338,10164.710405
22809.576418,2545.963246,1837.687757,10490.134278
22809.578970,516.849682,-4345.365842,8384.450390
22809.581522,-880.558717,-2909.672282,8461.020714
22809.584075,-1244.267752,2871.387120,10375.278794
22809.586627,1569.691626,880.558717,9934.999435
22809.589179,1071.984525,-4153.940034,8250.452325
22809.591731,4230.510357,3675.375514,10470.991698
22809.594284,-5321.637462,4938.785846,10872.985894
22809.596836,-306.281293,-8958.727814,6853.043926
22809.599388,-1091.127106,8269.594906,11428.120738
22809.601940,-2565.105827,6699.903280,11160.124606
22809.604493,3771.088418,-10432.706536,6049.055533
22809.607045,1052.841944,7829.315547,11619.546546
22809.609597,-2622.533570,4517.649069,11198.409768
22809.612149,-2794.816797,-9494.720077,7848.458128
22809.614701,440.279358,-3905.086483,7963.313613
22809.617254,363.709035,7561.319416,11887.542677
22809.619806,784.845813,440.279358,9992.427178
22809.622358,-1014.556782,-3885.943902,8059.026517
22809.624910,-1895.115499,3694.518094,10107.282662
22809.627463,-2679.961312,3311.666478,9992.427178
22809.630015,19.142581,-3043.670347,8212.167163
22809.632567,-0.000000,1741.974853,9858.429112
22809.635121,1397.408398,5302.494882,11198.409768
22809.637675,-3005.385186,-2297.109696,8633.303941
22809.640229,2009.970984,-3139.383251,8384.450390
22809.642783,-1856.830338,9284.151688,12136.396227
22809.645337,-2813.959378,3426.521963,10930.413637
22809.647891,5417.350366,-11964.113000,6163.911018
22809.650445,172.283227,8097.311678,12040.683323
22809.652999,-3522.234867,2124.826469,10432.706536
22809.655553,2048.256146,-12289.536874,5627.918755
22809.658108,1339.980656,10892.128475,12538.390424
22809.660662,306.281293,2354.537438,10375.278794
22809.663216,3158.525832,-9379.864592,6661.618118
22809.665770,-1454.836141,6412.764568,11504.691061
22809.668324,-995.414202,1761.117434,10298.708470
22809.670878,344.566454,-5723.631659,7580.461997
22809.673432,1569.691626,3292.523898,10470.991698
22809.675986,3560.520029,3598.805190,11198.409768
22809.678540,-344.566454,-1301.695494,9265.009107
22809.681094,-1167.697429,-3445.664544,8250.452325
22809.683648,-1627.119368,2488.535504,10260.423309
22809.686202,1569.691626,1875.972918,10164.710405
22809.688756,38.285162,-4287.938099,8116.454259
22809.691310,4134.797453,287.138712,9533.005238
22809.693864,-4268.795518,8882.157491,12117.253646
22809.696418,-2545.963246,-8480.163294,6948.756830
22809.698972,1033.699363,2488.535504,9533.005238
22809.701526,-3005.385186,12385.249778,12748.958813
22809.704080,2947.957443,-10088.140082,6317.051664
22809.706635,1722.832272,918.843878,9437.292334
22809.709189,-1493.121302,9590.432981,12366.107197
22809.711743,-3005.385186,1110.269686,9877.571693
22809.714297,191.425808,-6872.186507,7025.327154
22809.716851,-57.427742,4460.221326,10624.132344
22809.719405,1225.125171,4058.227130,11083.554283
22809.721959,-803.988394,-3139.383251,8518.448456
22809.724513,-1990.828403,727.418070,9150.153622
22809.727067,-1895.115499,4766.502619,10394.421374
22809.729621,-669.990328,-957.129040,8997.012976
22809.732175,-1550.549045,-1263.410333,8709.874264
22809.734729,1799.402595,3349.951640,10585.847182
22809.737284,-2009.970984,3598.805190,10432.706536
22809.739840,-382.851616,-7580.461997,8231.309744
22809.742395,5742.774240,-5149.354235,8135.596840
22809.744950,-57.427742,11600.403965,13150.953010
22809.747505,2201.396792,-7561.319416,7599.604578
22809.750061,3043.670347,-6776.473603,7599.604578
22809.752616,-3847.658741,12902.099459,13533.804626
22809.755171,-1703.689691,-8078.169098,7197.610381
22809.757727,3081.955509,-4153.940034,7695.317482
22809.760282,-57.427742,12978.669782,13418.949141
22809.762837,2431.107762,-5857.629725,8250.452325
22809.765392,1244.267752,-4862.215523,7905.885870
22809.767948,-1397.408398,7235.895542,11696.116869
22809.770503,191.425808,-2316.252277,8786.444587
22809.773058,2143.969050,-4823.930362,8422.735552
22809.775613,1397.408398,-861.416136,9571.290400
22809.778169,784.845813,4192.225195,10911.271056
22809.780724,-114.855485,-1588.834206,9111.868461
22809.783279,-229.710970,-1818.545176,8767.302006
22809.785834,3005.385186,1110.269686,10126.425243
22809.788390,248.853550,4977.071008,11064.411702
22809.790945,-3751.945837,-6144.768437,7255.038123
22809.793500,2986.242605,976.271621,9686.145885
22809.796056,-7427.321350,9552.147819,12021.540742
22809.798611,-287.138712,-9628.718142,5953.342629
22809.801166,1627.119368,2967.100024,9705.288466
22809.803721,-2143.969050,12232.109131,13610.374949
22809.806277,-1799.402595,-325.423874,9877.571693
22809.808832,-344.566454,-9494.720077,6202.196179
22809.811387,-1799.402595,7369.893608,11179.267187
22809.813942,114.855485,3081.955509,10681.560086
22809.816498,287.138712,-5130.211654,7848.458128
22809.819055,-823.130974,1856.830338,9934.999435
22809.821611,-1301.695494,4345.365842,10700.702667
22809.824168,-2258.824534,-1186.840010,8690.731683
22809.826725,-650.847747,-1167.697429,8575.876198
22809.829281,-516.849682,4421.936165,10585.847182
22809.831838,1703.689691,2124.826469,10317.851051
22809.834394,-1914.258080,-2411.965181,8614.161360
22809.836951,1607.976787,-593.420005,7714.460062
22809.839508,3311.666478,6967.899411,11810.972354
22809.842064,-2431.107762,1703.689691,10260.423309
22809.844621,5264.209720,-11198.409768,6374.479406
22809.847178,-19.142581,8805.587168,12308.679454
22809.849734,-3158.525832,1607.976787,10279.565890
22809.852291,2737.389054,-12346.964616,5608.776174
22809.854848,1301.695494,11504.691061,12844.671717
22809.857404,-133.998066,2048.256146,10202.995566
22809.859961,2775.674216,-10126.425243,6259.623922
22809.862518,-1014.556782,7293.323285,11830.114934
22809.865074,-459.421939,2239.681954,10662.417506
22809.867631,555.134843,-6814.758765,7312.465866
22809.870188,2048.256146,-2794.816797,8729.016845
22809.872744,1914.258080,3656.232933,11083.554283
22809.875301,957.129040,-306.281293,9686.145885
22809.877858,-248.853550,-2526.820666,8709.874264
22809.880414,-1167.697429,1703.689691,9858.429112
22809.882971,2947.957443,229.710970,9915.856854
22809.885528,-248.853550,1761.117434,9973.284597
22809.888084,-2488.535504,-4823.930362,7771.887805
22809.890641,937.986459,4632.504554,10738.987829
22809.893198,-6814.758765,3981.656806,10394.421374
22809.895754,1397.408398,-9265.009107,6010.770371
22809.898311,19.142581,8901.300072,11600.403965
22809.900868,-1359.123237,13763.515595,13763.515595
22809.903424,-1167.697429,-6910.471669,7752.745224
22809.905981,-478.564520,-5302.494882,7427.321350
22809.908538,-1952.543242,9552.147819,12040.683323
22809.911094,1033.699363,-1359.123237,9341.579430
22809.913651,-287.138712,-4115.654872,7905.885870
22809.916208,-746.560651,4019.941968,10643.274925
22809.918764,-1416.550979,2526.820666,10126.425243
22809.921321,-2163.111630,-1780.260014,8346.165229
22809.923879,-631.705166,516.849682,9092.725880
22809.926436,-1110.269686,4268.795518,10662.417506
22809.928993,2086.541307,-57.427742,9647.860723
22809.931551,-1741.974853,-555.134843,9188.438784
22809.934108,-1339.980656,-3598.805190,8288.737486
22809.936665,4383.651003,4957.928427,11313.265253
22809.939223,-1741.974853,2297.109696,10394.421374
22809.941780,4919.643266,-9954.142016,6719.045861
22809.944337,287.138712,6527.620053,11791.829773
22809.946895,-3349.951640,3043.670347,10643.274925
22809.949452,2067.398726,-11983.255581,5781.059402
22809.952009,1741.974853,9705.288466,12327.822035
22809.954567,-287.138712,3675.375514,10796.415571
22809.957124,2737.389054,-10183.852986,6355.336826
22809.959681,-497.707101,5781.059402,11408.978157
22809.962238,-459.421939,3713.660675,11102.696864
22809.964796,574.277424,-6929.614250,8786.444587
22809.967353,3024.527766,-3943.371645,8384.450390
22809.969910,574.277424,4058.227130,11179.267187
22809.972468,650.847747,-842.273555,9494.720077
22809.975025,19.142581,-2392.822600,8863.014910
22809.977582,-248.853550,3407.379382,10432.706536
22809.980140,2009.970984,-1875.972918,9245.866526
22809.982697,2775.674216,2565.105827,10241.280728
22809.985254,-5015.356170,-153.140646,9035.298138
22809.987812,2507.678085,-3445.664544,8614.161360
22809.990369,-5704.489078,8652.446522,11676.974288
22809.992926,-1646.261949,-3503.092286,7848.458128
22809.995484,2297.109696,-1971.685822,8403.592971
22809.998041,823.130974,7657.032320,11542.976222
22810.000598,-2201.396792,3560.520029,11006.983960
22810.003155,-957.129040,-8977.870395,6336.194245
22810.005713,-1454.836141,4287.938099,10202.995566
22810.008270,-325.423874,4766.502619,11140.982026
22810.010827,612.562586,-3541.377448,8422.735552
22810.013385,-1110.269686,382.851616,9360.722011
22810.015942,-1493.121302,4383.651003,10604.989763
22810.018499,-1205.982590,95.712904,9092.725880
22810.021057,-880.558717,-1052.841944,8748.159426
22810.023595,-1895.115499,3426.521963,10030.712339
22810.026133,114.855485,-650.847747,9456.434915
22810.028672,229.710970,1512.263883,9781.858789
22810.031210,-4460.221326,1129.412267,9609.575562
22810.033748,3005.385186,-6106.483275,7810.172966
22810.036287,2316.252277,5972.485210,11447.263318
22810.038825,133.998066,-689.132909,9571.290400
22810.041363,2143.969050,-9131.011042,7025.327154
22810.043901,-2297.109696,9533.005238,12385.249778
22810.046440,-1971.685822,-1148.554848,9379.864592
22810.048978,3426.521963,-7944.171032,6738.188442
22810.051516,803.988394,10432.706536,12461.820101
22810.054055,459.421939,-555.134843,9762.716208
22810.056593,689.132909,-8327.022648,6967.899411
22810.059131,-612.562586,5359.922624,11026.126541
22810.061670,918.843878,6068.198114,11485.548480
22810.064208,1531.406464,-4689.932296,8556.733618
22810.066746,1588.834206,-1301.695494,9207.581365
22810.069285,-880.558717,4957.928427,11121.839445
22810.071823,-727.418070,-4211.367776,8288.737486
22810.074361,2890.529701,-1110.269686,9169.296203
22810.076900,-2297.109696,5417.350366,11026.126541
22810.079438,535.992262,-6623.332957,7542.176835
22810.081976,-727.418070,5627.918755,11083.554283
22810.084515,-5091.926493,2258.824534,9973.284597
22810.087053,2143.969050,-6125.625856,7044.469734
22810.089591,-1110.269686,10490.134278,11849.257515
22810.092129,-267.996131,-823.130974,9284.151688
22810.094668,-478.564520,-9092.725880,6833.901346
22810.097206,-689.132909,1531.406464,9724.431046
22810.099744,-1856.830338,6757.331022,11523.833642
22810.102283,842.273555,-5225.924558,7771.887805
22810.104821,-650.847747,-210.568389,9150.153622
22810.107359,-229.710970,4977.071008,10968.698798
22810.109898,-1703.689691,-689.132909,9169.296203
22810.112436,-1569.691626,-306.281293,8920.442653
22810.114974,-1091.127106,2833.101958,10011.569758
22810.117513,-1761.117434,1167.697429,9379.864592
22810.120051,1799.402595,-1263.410333,9054.440718
22810.122589,-1129.412267,4211.367776,10528.419440
22810.125131,-4230.510357,-210.568389,9379.864592
22810.127673,5474.778109,-3311.666478,8882.157491
22810.130214,-191.425808,6833.901346,11638.689126
22810.132756,2967.100024,-5934.200048,7905.885870
22810.135298,2048.256146,-3101.098090,8767.302006
22810.137840,-3617.947771,8595.018779,12098.111066
22810.140381,19.142581,-8384.450390,7121.040058
22810.142923,3005.385186,1301.695494,9628.718142
22810.145465,38.285162,8939.585234,12212.966550
22810.148006,2775.674216,-6814.758765,7561.319416
22810.150548,-746.560651,-1148.554848,9016.155557
22810.153090,-1167.697429,4804.787781,11083.554283
22810.155632,535.992262,-3483.949706,8556.733618
22810.158173,2067.398726,-4153.940034,8595.018779
22810.160715,765.703232,2928.814862,10490.134278
22810.163257,-38.285162,516.849682,9820.143950
22810.165798,-459.421939,-3713.660675,8384.450390
22810.168340,1607.976787,2469.392923,10222.138147
22810.170882,-2297.109696,1167.697429,9781.858789
22810.173424,2124.826469,-5761.916821,7733.602643
22810.175965,-1799.402595,8690.731683,12098.111066
22810.178507,-3847.658741,-1780.260014,8901.300072
22810.181049,2048.256146,-4077.369710,7676.174901
22810.183591,-2163.111630,12442.677520,12576.675586
22810.186132,784.845813,-4747.360038,8135.596840
22810.188674,-114.855485,-10279.565890,6374.479406
22810.191216,-803.988394,4517.649069,10643.274925
22810.193757,-1914.258080,5608.776174,11370.692995
22810.196299,267.996131,-6527.620053,7312.465866
22810.198841,-612.562586,957.129040,9456.434915
22810.201383,38.285162,5474.778109,11160.124606
22810.203924,-1607.976787,-1607.976787,8843.872330
22810.206466,-823.130974,-38.285162,9073.583299
22810.209008,-1339.980656,3981.656806,10432.706536
22810.211549,-2316.252277,-57.427742,8939.585234
22810.214091,1397.408398,-2163.111630,8748.159426
22810.216633,-344.566454,6163.911018,11274.980091
22810.219175,-1741.974853,-3943.371645,8537.591037
22810.221716,5359.922624,-7389.036189,7752.745224
22810.224258,918.843878,7389.036189,11734.402030
22810.226802,1263.410333,-2526.820666,9016.155557
22810.229347,2277.967115,-7714.460062,7350.751027
22810.231891,-2909.672282,9609.575562,12442.677520
22810.234436,-976.271621,-4651.647134,8499.305875
22810.236980,3330.809059,-3388.236802,8154.739421
22810.239524,-114.855485,9858.429112,12442.677520
22810.242069,2622.533570,-4153.940034,8575.876198
22810.244613,631.705166,-3369.094221,8518.448456
22810.247157,-593.420005,4977.071008,11064.411702
22810.249702,650.847747,-2316.252277,8920.442653
22810.252246,995.414202,-2794.816797,8441.878133
22810.254791,803.988394,1397.408398,10030.712339
22810.257335,689.132909,2335.394858,10490.134278
22810.259879,-535.992262,-2622.533570,8652.446522
22810.262424,3024.527766,-784.845813,9456.434915
22810.264968,-937.986459,6010.770371,11351.550414
22810.267512,-3043.670347,-6508.477472,7312.465866
22810.270057,1875.972918,1684.547110,9781.858789
22810.272601,-6489.334891,7542.176835,11389.835576
22810.275145,669.990328,-8843.872330,6317.051664
22810.277690,497.707101,5781.059402,10528.419440
22810.280234,-2220.539373,7599.604578,11906.685258
22810.282779,-287.138712,-10068.997501,6546.762634
22810.285323,-344.566454,-6259.623922,7178.467800
22810.287867,-765.703232,8212.167163,11849.257515
22810.290412,114.855485,325.423874,9801.001370
22810.292956,-669.990328,-4747.360038,7637.889739
22810.295500,-976.271621,3885.943902,10432.706536
22810.298045,-2507.678085,3483.949706,10317.851051
22810.300589,-363.709035,-3196.810994,8173.882002
22810.303134,-957.129040,2450.250342,9820.143950
22810.305678,-555.134843,4977.071008,10738.987829
22810.308222,-1665.404530,-4402.793584,8059.026517
22810.310767,2603.390989,976.271621,9781.858789
22810.313311,-4670.789715,6183.053598,11217.552349
22810.315855,3215.953574,-10490.134278,8403.592971
22810.318400,4670.789715,-6451.049730,7676.174901
22810.320944,-1339.980656,10030.712339,12729.816232
22810.323489,-306.281293,-5685.346498,8212.167163
22810.326033,2354.537438,-3464.807125,8422.735552
22810.328580,-880.558717,10356.136213,12710.673651
22810.331127,1397.408398,-7006.184573,7235.895542
22810.333674,1378.265818,-1148.554848,8882.157491
22810.336221,-1646.261949,7025.327154,11887.542677
22810.338768,784.845813,-4632.504554,8365.307810
22810.341315,631.705166,-1952.543242,8805.587168
22810.343862,2507.678085,3924.229064,10987.841379
22810.346408,-210.568389,-2163.111630,9207.581365
22810.348955,459.421939,-3924.229064,8499.305875
22810.351502,-995.414202,-267.996131,9360.722011
22810.354049,1665.404530,3924.229064,10585.847182
22810.356596,-2182.254211,-3120.240670,8461.020714
22810.359143,4192.225195,-2756.531635,8575.876198
22810.361690,-3771.088418,9705.288466,12270.394293
22810.364237,-1741.974853,-6125.625856,7829.315547
22810.366784,1320.838075,669.990328,9073.583299
22810.369331,-3081.955509,12193.823970,12614.960747
22810.371878,1856.830338,-8518.448456,6757.331022
22810.374425,1435.693560,401.994197,9131.011042
22810.376972,-2220.539373,8786.444587,12500.105262
22810.379519,-1703.689691,-6776.473603,7446.463931
22810.382066,-133.998066,-6297.909083,7312.465866
22810.384613,-95.712904,3215.953574,10068.997501
22810.387160,-38.285162,4479.363907,10892.128475
22810.389707,-1990.828403,-2699.103893,8346.165229
22810.392254,-133.998066,880.558717,9399.007173
22810.394801,-1110.269686,5321.637462,10892.128475
22810.397347,-2143.969050,-1722.832272,8441.878133
22810.399894,689.132909,-2545.963246,8556.733618
22810.402441,306.281293,7867.600709,11849.257515
22810.404988,-3120.240670,-3809.373579,8499.305875
22810.407535,6297.909083,-4823.930362,8365.307810
22810.410082,-1014.556782,10892.128475,12959.527202
22810.412629,-1320.838075,3503.092286,10987.841379
22810.415176,2335.394858,-12461.820101,5953.342629
22810.417723,-1033.699363,8824.729749,11944.970419
22810.420270,-2143.969050,1952.543242,10490.134278
22810.422817,3273.381317,-9303.294269,6355.336826
22810.425364,593.420005,9035.298138,12002.398162
22810.427911,593.420005,1205.982590,10279.565890
22810.430460,555.134843,-7791.030386,7235.895542
22810.433009,-114.855485,3694.518094,10528.419440
22810.435558,1148.554848,1569.691626,10279.565890
22810.438107,248.853550,-5187.639397,7982.456194
22810.440656,593.420005,1129.412267,9820.143950
22810.443205,765.703232,2986.242605,10700.702667
22810.445754,937.986459,1569.691626,10011.569758
22810.448303,-880.558717,-4632.504554,7963.313613
22810.450852,3962.514226,1933.400661,9992.427178
22810.453401,-4441.078746,6833.901346,11408.978157
22810.455950,344.566454,-8518.448456,7140.182638
22810.458499,-401.994197,5838.487144,10758.130410
22810.461048,-3847.658741,8709.874264,11772.687192
22810.463597,2947.957443,-9877.571693,6163.911018
22810.466146,1339.980656,5551.348432,10681.560086
22810.468695,-2277.967115,5895.914886,11696.116869
22810.471244,-535.992262,-8269.594906,7063.612315
22810.473793,-1052.841944,1875.972918,9724.431046
22810.476342,-1091.127106,4460.221326,10930.413637
22810.478891,114.855485,823.130974,9743.573627
22810.481440,-1435.693560,-1588.834206,8652.446522
22810.483989,-459.421939,3732.803256,10336.993632
22810.486538,-1397.408398,1588.834206,9801.001370
22810.489087,-1531.406464,-861.416136,8671.589102
22810.491636,-631.705166,-95.712904,9265.009107
22810.494185,1052.841944,4613.361973,10911.271056
22810.496734,-3503.092286,-2258.824534,8882.157491
22810.499283,5895.914886,-4249.652938,8748.159426
22810.501832,-287.138712,8690.731683,12193.823970
22810.504381,1703.689691,-6259.623922,7848.458128
22810.506930,2718.246474,-5532.205851,7905.885870
22810.509479,-401.994197,7331.608446,11600.403965
22810.512027,-2201.396792,3005.385186,10777.272990
22810.514576,3062.812928,-9073.583299,6431.907149
22810.517125,612.562586,7503.891674,11485.548480
22810.519674,574.277424,2660.818731,10700.702667
22810.522223,823.130974,-7255.038123,7389.036189
22810.524772,535.992262,2201.396792,10088.140082
22810.527321,937.986459,2431.107762,10604.989763
22810.529870,325.423874,-3905.086483,8461.020714
22810.532421,363.709035,-650.847747,9418.149754
22810.534971,363.709035,2316.252277,10470.991698
22810.537522,861.416136,210.568389,9628.718142
22810.540072,-708.275490,-3369.094221,8384.450390
22810.542623,2603.390989,-3215.953574,8441.878133
22810.545173,-2488.535504,9456.434915,12270.394293
22810.547724,-3005.385186,-4134.797453,8269.594906
22810.550274,2641.676150,-2220.539373,8231.309744
22810.552825,-2813.959378,13150.953010,12882.956878
22810.555375,880.558717,-6431.907149,7542.176835
22810.557926,1378.265818,-3483.949706,7848.458128
22810.560476,-2009.970984,10279.565890,12902.099459
22810.563027,-1435.693560,-4192.225195,8269.594906
22810.565577,191.425808,-3675.375514,8078.169098
22810.568128,-880.558717,6240.481341,11255.837510
22810.570678,-114.855485,784.845813,9686.145885
22810.573229,-1761.117434,-1990.828403,8518.448456
22810.575779,-267.996131,38.285162,9073.583299
22810.578330,-1952.543242,4134.797453,10547.562021
22810.580880,937.986459,1282.552914,9686.145885
22810.583431,-2182.254211,-1339.980656,8882.157491
22810.585981,3120.240670,765.703232,9781.858789
22810.588532,-2813.959378,5474.778109,11045.269122
22810.591082,1014.556782,-10356.136213,6623.332957
22810.593633,3349.951640,1225.125171,9915.856854
22810.596183,-2565.105827,8039.883936,12308.679454
22810.598734,1627.119368,-11600.403965,6297.909083
22810.601284,1110.269686,3732.803256,10528.419440
22810.603835,-1914.258080,7657.032320,12078.968485
22810.606385,823.130974,-3388.236802,8327.022648
22810.608936,1014.556782,-5895.914886,7350.751027
22810.611486,-1550.549045,7140.182638,11830.114934
22810.614037,535.992262,-421.136778,9896.714274
22810.616587,1780.260014,-5589.633594,7829.315547
22810.619138,1684.547110,2833.101958,10643.274925
22810.621688,459.421939,1856.830338,10336.993632
22810.624239,1263.410333,-3617.947771,8729.016845
22810.626789,-1033.699363,689.132909,9609.575562
