#time,accel_x,accel_y,accel_z
18432.798465,-248.853550,172.283227,-9877.571693
18432.800930,-229.710970,555.134843,-10049.854920
18432.803395,382.851616,0.000000,-9858.429112
18432.805860,306.281293,-153.140646,-9781.858789
18432.808324,631.705166,1014.556782,-9954.142016
18432.810789,1397.408398,669.990328,-9877.571693
18432.813254,-995.414202,95.712904,-9839.286531
18432.815719,-823.130974,1856.830338,-10604.989763
18432.818184,-497.707101,-650.847747,-9609.575562
18432.820686,1110.269686,-440.279358,-9552.147819
18432.823187,-344.566454,899.701298,-10298.708470
18432.825689,-555.134843,-19.142581,-10088.140082
18432.828191,1971.685822,191.425808,-9609.575562
18432.830692,-325.423874,-210.568389,-9628.718142
18432.833194,-421.136778,2928.814862,-10777.272990
18432.835696,-1837.687757,-1129.412267,-9494.720077
18432.838197,95.712904,-133.998066,-9820.143950
18432.840699,-535.992262,1780.260014,-10528.419440
18432.843201,-1493.121302,-95.712904,-10260.423309
18432.845703,-880.558717,-3139.383251,-8767.302006
18432.848204,-229.710970,2316.252277,-10624.132344
18432.850706,-459.421939,267.996131,-10049.854920
18432.853208,-325.423874,-1799.402595,-9111.868461
18432.855709,650.847747,1722.832272,-10298.708470
18432.858211,-306.281293,38.285162,-9743.573627
18432.860713,-248.853550,-784.845813,-9667.003304
18432.863214,-803.988394,114.855485,-10088.140082
18432.865716,-516.849682,459.421939,-10107.282662
18432.868218,-38.285162,-1473.978722,-9169.296203
18432.870719,-784.845813,516.849682,-9896.714274
18432.873221,-1014.556782,1741.974853,-10566.704602
18432.875723,267.996131,-306.281293,-9858.429112
18432.878224,229.710970,-1703.689691,-9188.438784
18432.880726,-382.851616,2048.256146,-10566.704602
18432.883228,-1397.408398,-19.142581,-9877.571693
18432.885729,-1244.267752,-1435.693560,-9456.434915
18432.888231,-19.142581,344.566454,-9973.284597
18432.890733,-478.564520,669.990328,-10202.995566
18432.893234,-440.279358,-669.990328,-9686.145885
18432.895736,-1378.265818,-803.988394,-9762.716208
18432.898238,-363.709035,2890.529701,-10777.272990
18432.900739,-1186.840010,-1703.689691,-9265.009107
18432.903241,421.136778,-210.568389,-9839.286531
18432.905743,-1550.549045,976.271621,-10375.278794
18432.908244,-650.847747,2871.387120,-10968.698798
18432.910746,650.847747,-4287.938099,-8575.876198
18432.913248,-2029.113565,2201.396792,-10547.562021
18432.915749,1799.402595,38.285162,-9954.142016
18432.918251,-3905.086483,-3751.945837,-8461.020714
18432.920774,2718.246474,6719.045861,-12098.111066
18432.923297,2048.256146,-6221.338760,-7695.317482
18432.925819,-1378.265818,2239.681954,-10375.278794
18432.928342,2354.537438,6221.338760,-11715.259450
18432.930865,-3905.086483,-6891.329088,-7178.467800
18432.933388,2469.392923,4173.082614,-11313.265253
18432.935911,-593.420005,1875.972918,-10528.419440
18432.938433,-1110.269686,-3579.662610,-8748.159426
18432.940956,-133.998066,363.709035,-9839.286531
18432.943479,478.564520,1799.402595,-10432.706536
18432.946002,-1837.687757,114.855485,-9686.145885
18432.948524,842.273555,976.271621,-9896.714274
18432.951047,555.134843,803.988394,-10049.854920
18432.953570,784.845813,746.560651,-10164.710405
18432.956093,-210.568389,-401.994197,-9628.718142
18432.958616,-861.416136,19.142581,-9934.999435
18432.961138,-459.421939,1148.554848,-10356.136213
18432.963661,-267.996131,-593.420005,-9724.431046
18432.966184,-95.712904,708.275490,-10126.425243
18432.968707,325.423874,1225.125171,-10183.852986
18432.971230,-478.564520,440.279358,-10049.854920
18432.973752,153.140646,-267.996131,-9858.429112
18432.976275,-267.996131,727.418070,-9820.143950
18432.978798,95.712904,784.845813,-10183.852986
18432.981321,363.709035,19.142581,-9839.286531
18432.983843,1837.687757,287.138712,-9858.429112
18432.986366,-937.986459,1531.406464,-10145.567824
18432.988889,-918.843878,650.847747,-10107.282662
18432.991412,-38.285162,-937.986459,-9628.718142
18432.993935,57.427742,1588.834206,-10298.708470
18432.996457,803.988394,-133.998066,-9762.716208
18432.998980,1014.556782,-631.705166,-9533.005238
18433.001503,650.847747,-459.421939,-9667.003304
18433.004026,-765.703232,1225.125171,-10202.995566
18433.006548,957.129040,-363.709035,-9571.290400
18433.009071,-1646.261949,2124.826469,-10432.706536
18433.011594,4747.360038,-650.847747,-9609.575562
18433.014117,-2316.252277,-2335.394858,-8920.442653
18433.016640,-976.271621,6546.762634,-12117.253646
18433.019162,-191.425808,-6546.762634,-7695.317482
18433.021700,-1646.261949,-1110.269686,-9494.720077
18433.024238,3292.523898,6929.614250,-12557.533005
18433.026776,-4249.652938,-9475.577496,-6661.618118
18433.029313,1397.408398,5283.352301,-11753.544611
18433.031851,1110.269686,6699.903280,-12270.394293
18433.034389,-1588.834206,-3713.660675,-8595.018779
18433.036927,-1359.123237,2067.398726,-10547.562021
18433.039464,-133.998066,1646.261949,-10643.274925
18433.042002,-1512.263883,-3196.810994,-8824.729749
18433.044540,1205.982590,478.564520,-9992.427178
18433.047078,-1741.974853,-210.568389,-9973.284597
18433.049615,-1454.836141,-19.142581,-10107.282662
18433.052153,-210.568389,76.570323,-9762.716208
18433.054691,210.568389,-325.423874,-9533.005238
18433.057229,-38.285162,1741.974853,-10317.851051
18433.059766,-267.996131,-880.558717,-9533.005238
18433.062304,-784.845813,-421.136778,-9724.431046
18433.064842,229.710970,-133.998066,-9820.143950
18433.067380,-842.273555,1014.556782,-10279.565890
18433.069917,-421.136778,114.855485,-9801.001370
18433.072455,-344.566454,-995.414202,-9456.434915
18433.074993,-38.285162,861.416136,-10298.708470
18433.077530,-1186.840010,153.140646,-10030.712339
18433.080068,-1665.404530,-1282.552914,-9628.718142
18433.082606,-306.281293,1129.412267,-10375.278794
18433.085144,248.853550,-325.423874,-9839.286531
18433.087681,-2354.537438,-363.709035,-9801.001370
18433.090219,1033.699363,440.279358,-10068.997501
18433.092757,-746.560651,-1033.699363,-9399.007173
18433.095295,612.562586,669.990328,-9705.288466
18433.097832,-1493.121302,1435.693560,-10317.851051
18433.100370,1895.115499,-2182.254211,-9131.011042
18433.102908,-2086.541307,-210.568389,-9705.288466
18433.105446,1722.832272,2488.535504,-10834.700733
18433.107983,-4632.504554,-3330.809059,-8882.157491
18433.110521,1684.547110,3522.234867,-11064.411702
18433.113059,2718.246474,-3215.953574,-8595.018779
18433.115597,-3349.951640,382.851616,-9896.714274
18433.118134,3215.953574,6431.907149,-12040.683323
18433.120672,-440.279358,-8633.303941,-6393.621987
18433.123219,2067.398726,7637.889739,-12002.398162
18433.125765,-1416.550979,1703.689691,-10719.845248
18433.128312,-2603.390989,-5742.774240,-7695.317482
18433.130859,1952.543242,-650.847747,-9552.147819
18433.133405,2182.254211,3139.383251,-11045.269122
18433.135952,-229.710970,-2565.105827,-9092.725880
18433.138499,-210.568389,555.134843,-9820.143950
18433.141045,-133.998066,2201.396792,-10470.991698
18433.143592,746.560651,631.705166,-9934.999435
18433.146139,1703.689691,-1493.121302,-9131.011042
18433.148685,995.414202,555.134843,-10088.140082
18433.151232,-880.558717,1856.830338,-10490.134278
18433.153779,-823.130974,-1052.841944,-9303.294269
18433.156325,38.285162,-76.570323,-9686.145885
18433.158872,765.703232,401.994197,-9858.429112
18433.161419,172.283227,1244.267752,-10241.280728
18433.163965,-287.138712,459.421939,-10088.140082
18433.166512,-555.134843,-784.845813,-9513.862658
18433.169058,631.705166,861.416136,-10126.425243
18433.171605,555.134843,612.562586,-9896.714274
18433.174152,1167.697429,-229.710970,-9533.005238
18433.176698,-306.281293,1110.269686,-10145.567824
18433.179245,-497.707101,1282.552914,-10279.565890
18433.181792,-325.423874,-478.564520,-9533.005238
18433.184338,-612.562586,574.277424,-10011.569758
18433.186885,880.558717,727.418070,-10394.421374
18433.189432,1627.119368,-1205.982590,-9418.149754
18433.191978,880.558717,-2105.683888,-8901.300072
18433.194525,-306.281293,2143.969050,-10279.565890
18433.197072,555.134843,287.138712,-9954.142016
18433.199618,-861.416136,803.988394,-9992.427178
18433.202165,4747.360038,-1282.552914,-9456.434915
18433.204712,-2526.820666,-38.285162,-9839.286531
18433.207258,689.132909,4402.793584,-11274.980091
18433.209805,-440.279358,-7752.745224,-7006.184573
18433.212352,-1990.828403,3330.809059,-11083.554283
18433.214898,1684.547110,4000.799387,-11830.114934
18433.217445,-3981.656806,-8786.444587,-7025.327154
18433.219992,2756.531635,7044.469734,-12480.962682
18433.222538,-2258.824534,-459.421939,-11868.400096
18433.225090,-1895.115499,-4651.647134,-8154.739421
18433.227642,57.427742,2967.100024,-10758.130410
18433.230194,95.712904,459.421939,-10183.852986
18433.232746,-1665.404530,-1914.258080,-9303.294269
18433.235298,478.564520,38.285162,-9839.286531
18433.237849,-1665.404530,19.142581,-10030.712339
18433.240401,-153.140646,-133.998066,-9973.284597
18433.242953,-689.132909,-842.273555,-9552.147819
18433.245505,-0.000000,842.273555,-10030.712339
18433.248057,-306.281293,1263.410333,-10241.280728
18433.250609,-401.994197,-497.707101,-9743.573627
18433.253161,95.712904,-325.423874,-9762.716208
18433.255713,-114.855485,114.855485,-9839.286531
18433.258265,-1167.697429,765.703232,-10107.282662
18433.260816,-861.416136,-210.568389,-9781.858789
18433.263368,-708.275490,-669.990328,-9667.003304
18433.265920,-497.707101,574.277424,-10241.280728
18433.268472,-38.285162,-516.849682,-9896.714274
18433.271024,-555.134843,-995.414202,-9686.145885
18433.273576,-708.275490,957.129040,-10241.280728
18433.276128,-1933.400661,-555.134843,-9781.858789
18433.278680,-497.707101,1071.984525,-10126.425243
18433.281232,-38.285162,-459.421939,-9801.001370
18433.283783,727.418070,-1129.412267,-9571.290400
18433.286335,-1359.123237,1052.841944,-9954.142016
18433.288887,1339.980656,1473.978722,-10241.280728
18433.291439,-1378.265818,-3235.096155,-8863.014910
18433.293991,574.277424,3388.236802,-11006.983960
18433.296543,-631.705166,-2316.252277,-9265.009107
18433.299095,-2794.816797,1339.980656,-10279.565890
18433.301647,4421.936165,1684.547110,-10298.708470
18433.304199,-2507.678085,-5991.627790,-7867.600709
18433.306750,497.707101,10126.425243,-12921.242040
18433.309302,899.701298,-3713.660675,-8269.594906
18433.311854,-401.994197,-1320.838075,-8863.014910
18433.314406,842.273555,7025.327154,-12423.534939
18433.316958,-2105.683888,-5608.776174,-7867.600709
18433.319510,267.996131,-5302.494882,-8097.311678
18433.322062,1684.547110,3675.375514,-11236.694930
18433.324614,-440.279358,535.992262,-10164.710405
18433.327168,-1205.982590,-727.418070,-9188.438784
18433.329723,-555.134843,1493.121302,-10068.997501
18433.332277,1186.840010,2239.681954,-10470.991698
18433.334832,1933.400661,-2756.531635,-8786.444587
18433.337386,1282.552914,-95.712904,-9801.001370
18433.339941,-899.701298,2431.107762,-10815.558152
18433.342495,-631.705166,-708.275490,-9609.575562
18433.345050,555.134843,-1052.841944,-9284.151688
18433.347604,861.416136,363.709035,-10068.997501
18433.350159,267.996131,1205.982590,-10298.708470
18433.352713,153.140646,574.277424,-10068.997501
18433.355268,-0.000000,-612.562586,-9494.720077
18433.357822,1550.549045,1339.980656,-10030.712339
18433.360377,-114.855485,535.992262,-9801.001370
18433.362932,-823.130974,287.138712,-9954.142016
18433.365486,153.140646,440.279358,-9915.856854
18433.368041,1052.841944,325.423874,-9934.999435
18433.370595,593.420005,-574.277424,-9743.573627
18433.373150,1244.267752,-287.138712,-9724.431046
18433.375704,-2507.678085,1933.400661,-10547.562021
18433.378259,-19.142581,1703.689691,-10413.563955
18433.380813,-1569.691626,-727.418070,-9418.149754
18433.383368,3445.664544,842.273555,-9705.288466
18433.385922,-746.560651,-497.707101,-9628.718142
18433.388477,-1167.697429,3426.521963,-11255.837510
18433.391031,2086.541307,-3560.520029,-8575.876198
18433.393586,-4957.928427,669.990328,-10030.712339
18433.396140,-1397.408398,8001.598774,-12825.529136
18433.398695,-1875.972918,-10451.849117,-6278.766502
18433.401249,2297.109696,3560.520029,-11217.552349
18433.403804,1205.982590,1512.263883,-11006.983960
18433.406359,-2890.529701,-6508.477472,-7484.749093
18433.408913,784.845813,5953.342629,-11849.257515
18433.411468,-880.558717,784.845813,-10068.997501
18433.414022,-1186.840010,-2086.541307,-8977.870395
18433.416577,516.849682,57.427742,-9954.142016
18433.419131,-401.994197,-382.851616,-9992.427178
18433.421686,-1167.697429,287.138712,-10145.567824
18433.424240,-976.271621,-1052.841944,-9647.860723
18433.426795,-1014.556782,172.283227,-10088.140082
18433.429352,-229.710970,1627.119368,-10470.991698
18433.431909,-325.423874,-995.414202,-9284.151688
18433.434467,-153.140646,229.710970,-9858.429112
18433.437024,-133.998066,363.709035,-9992.427178
18433.439582,-363.709035,0.000000,-9973.284597
18433.442139,-38.285162,-708.275490,-9628.718142
18433.444696,-976.271621,574.277424,-10049.854920
18433.447254,-1052.841944,401.994197,-10011.569758
18433.449811,-191.425808,-842.273555,-9705.288466
18433.452368,267.996131,-631.705166,-9781.858789
18433.454926,-287.138712,363.709035,-10164.710405
18433.457483,-2143.969050,-727.418070,-9839.286531
18433.460040,-784.845813,1110.269686,-10088.140082
18433.462598,-248.853550,-555.134843,-9475.577496
18433.465155,727.418070,-708.275490,-9781.858789
18433.467713,-861.416136,1244.267752,-10260.423309
18433.470270,421.136778,-1722.832272,-9437.292334
18433.472827,-2660.818731,1225.125171,-10222.138147
18433.475385,1186.840010,1378.265818,-10279.565890
18433.477942,-4689.932296,-2469.392923,-9092.725880
18433.480499,440.279358,2143.969050,-10719.845248
18433.483057,3694.518094,-2143.969050,-9092.725880
18433.485614,-3426.521963,-880.558717,-9609.575562
18433.488171,2660.818731,7235.895542,-12346.964616
18433.490729,-76.570323,-8059.026517,-6508.477472
18433.493286,1914.258080,6489.334891,-11734.402030
18433.495843,-229.710970,2833.101958,-10987.841379
18433.498401,-1454.836141,-7197.610381,-7274.180704
18433.500958,1799.402595,4479.363907,-11313.265253
18433.503516,-382.851616,287.138712,-10375.278794
18433.506073,-861.416136,-3617.947771,-8614.161360
18433.508630,1378.265818,2794.816797,-10585.847182
18433.511188,-287.138712,2373.680019,-10681.560086
18433.513745,-76.570323,-478.564520,-9571.290400
18433.516302,-650.847747,-459.421939,-9667.003304
18433.518860,861.416136,1990.828403,-10681.560086
18433.521417,-57.427742,-172.283227,-9781.858789
18433.523974,-114.855485,-823.130974,-9494.720077
18433.526532,-765.703232,1052.841944,-10317.851051
18433.529089,-440.279358,746.560651,-10088.140082
18433.531648,344.566454,325.423874,-9858.429112
18433.534206,1033.699363,-574.277424,-9667.003304
18433.536765,937.986459,1607.976787,-10356.136213
18433.539323,344.566454,-516.849682,-9494.720077
18433.541882,-1359.123237,803.988394,-10088.140082
18433.544440,574.277424,1550.549045,-10356.136213
18433.546999,746.560651,133.998066,-9877.571693
18433.549557,957.129040,-1703.689691,-9475.577496
18433.552116,1933.400661,1416.550979,-10068.997501
18433.554674,-2718.246474,1052.841944,-10183.852986
18433.557233,-1014.556782,1205.982590,-10260.423309
18433.559791,-1205.982590,172.283227,-9762.716208
18433.562350,2756.531635,631.705166,-9992.427178
18433.564908,-2775.674216,899.701298,-10202.995566
18433.567467,2469.392923,1378.265818,-10336.993632
18433.570025,-1110.269686,-3694.518094,-8499.305875
18433.572584,-4441.078746,6604.190376,-12212.966550
18433.575142,459.421939,-995.414202,-9724.431046
18433.577701,-1875.972918,-10796.415571,-6259.623922
18433.580259,2986.242605,3981.656806,-11313.265253
18433.582818,650.847747,784.845813,-10624.132344
18433.585376,-2967.100024,-6068.198114,-7676.174901
18433.587935,382.851616,6297.909083,-12021.540742
18433.590493,-957.129040,210.568389,-10011.569758
18433.593052,-363.709035,-2048.256146,-8843.872330
18433.595610,-287.138712,1627.119368,-10394.421374
18433.598169,-2277.967115,191.425808,-10260.423309
18433.600727,-631.705166,-1397.408398,-9475.577496
18433.603286,-229.710970,-1205.982590,-9456.434915
18433.605844,114.855485,1875.972918,-10681.560086
18433.608402,267.996131,-1091.127106,-10317.851051
18433.610961,-1129.412267,-2277.967115,-8977.870395
18433.613519,-210.568389,1837.687757,-10470.991698
18433.616078,-555.134843,267.996131,-9877.571693
18433.618636,-421.136778,-516.849682,-9781.858789
18433.621195,-899.701298,-172.283227,-9915.856854
18433.623753,-1052.841944,746.560651,-10279.565890
18433.626312,-535.992262,-172.283227,-9820.143950
18433.628870,-133.998066,-1205.982590,-9494.720077
18433.631429,-689.132909,842.273555,-10336.993632
18433.633933,-2067.398726,-708.275490,-9934.999435
18433.636437,-593.420005,382.851616,-10049.854920
18433.638941,-267.996131,0.000000,-9781.858789
18433.641444,880.558717,-650.847747,-9647.860723
18433.643948,-631.705166,535.992262,-9954.142016
18433.646452,1033.699363,-842.273555,-9533.005238
18433.648956,-3120.240670,191.425808,-9973.284597
18433.651459,1914.258080,1588.834206,-10413.563955
18433.653963,-3828.516160,-2775.674216,-9054.440718
18433.656467,2967.100024,2488.535504,-10662.417506
18433.658971,861.416136,-4153.940034,-8346.165229
18433.661475,-2163.111630,3732.803256,-11313.265253
18433.663978,4096.512291,2143.969050,-10490.134278
18433.666482,-746.560651,-7637.889739,-6527.620053
18433.668986,2909.672282,10777.272990,-13131.810429
18433.671490,-2239.681954,-2469.392923,-11791.829773
18433.673994,-2431.107762,-8097.311678,-6910.471669
18433.676497,1971.685822,3215.953574,-10815.558152
18433.679001,478.564520,1952.543242,-10834.700733
18433.681505,-478.564520,-4555.934230,-8365.307810
18433.684009,1263.410333,2143.969050,-10336.993632
18433.686512,-76.570323,3483.949706,-10834.700733
18433.689016,-765.703232,-861.416136,-9360.722011
18433.691520,-1186.840010,191.425808,-9896.714274
18433.694024,995.414202,2584.248408,-10853.843314
18433.696528,631.705166,-2029.113565,-9111.868461
18433.699031,38.285162,-1052.841944,-9513.862658
18433.701535,-784.845813,2526.820666,-10930.413637
18433.704039,76.570323,2182.254211,-10547.562021
18433.706543,957.129040,-1359.123237,-9245.866526
18433.709046,38.285162,153.140646,-9896.714274
18433.711550,19.142581,2871.387120,-10834.700733
18433.714054,-478.564520,-1244.267752,-9303.294269
18433.716558,440.279358,-133.998066,-9667.003304
18433.719062,1052.841944,2316.252277,-10566.704602
18433.721565,229.710970,-1607.976787,-9418.149754
18433.724069,1722.832272,-516.849682,-9475.577496
18433.726573,-2029.113565,3483.949706,-10834.700733
18433.729077,-612.562586,593.420005,-10202.995566
18433.731581,-612.562586,-1818.545176,-9111.868461
18433.734098,3445.664544,1588.834206,-9647.860723
18433.736616,-2124.826469,1646.261949,-10585.847182
18433.739133,421.136778,1990.828403,-10700.702667
18433.741651,593.420005,-4555.934230,-7982.456194
18433.744168,-4689.932296,5627.918755,-11753.544611
18433.746686,-0.000000,2947.957443,-11179.267187
18433.749203,-2163.111630,-10662.417506,-5934.200048
18433.751721,3388.236802,7465.606512,-12519.247843
18433.754238,-1454.836141,-3579.662610,-8901.300072
18433.756756,-1818.545176,-3771.088418,-8365.307810
18433.759273,937.986459,7140.182638,-12442.677520
18433.761790,-1454.836141,-2354.537438,-9092.725880
18433.764308,401.994197,-784.845813,-9303.294269
18433.766825,-210.568389,689.132909,-10088.140082
18433.769343,-1837.687757,1244.267752,-10681.560086
18433.771860,-1550.549045,-1205.982590,-9705.288466
18433.774378,172.283227,-2009.970984,-9188.438784
18433.776895,-133.998066,2048.256146,-10700.702667
18433.779413,133.998066,325.423874,-9896.714274
18433.781930,-1875.972918,-1531.406464,-9226.723946
18433.784448,-1129.412267,3196.810994,-11140.982026
18433.786965,574.277424,-746.560651,-9533.005238
18433.789483,-880.558717,-1971.685822,-9035.298138
18433.792000,-1110.269686,2679.961312,-10872.985894
18433.794518,-344.566454,-612.562586,-9858.429112
18433.797035,95.712904,-2086.541307,-9265.009107
18433.799553,-248.853550,-421.136778,-9609.575562
18433.802070,-535.992262,191.425808,-10164.710405
18433.804588,-1186.840010,-650.847747,-9896.714274
18433.807105,-114.855485,0.000000,-9973.284597
18433.809623,1052.841944,-344.566454,-9743.573627
18433.812140,-1071.984525,401.994197,-9705.288466
18433.814658,267.996131,-229.710970,-9858.429112
18433.817175,-3196.810994,1186.840010,-10432.706536
18433.819693,1722.832272,133.998066,-10030.712339
18433.822210,-3541.377448,-2182.254211,-9111.868461
18433.824728,3081.955509,2067.398726,-10509.276859
18433.827245,-459.421939,-4173.082614,-8327.022648
18433.829763,-3445.664544,-995.414202,-9494.720077
18433.832280,3560.520029,7523.034254,-12480.962682
18433.834760,363.709035,-8422.735552,-6470.192310
18433.837240,2565.105827,6278.766502,-11581.261384
18433.839720,-727.418070,3139.383251,-11045.269122
18433.842199,-1914.258080,-7197.610381,-7274.180704
18433.844679,1378.265818,4900.500685,-11562.118803
18433.847159,-76.570323,287.138712,-10336.993632
18433.849638,-937.986459,-4019.941968,-8480.163294
18433.852118,995.414202,3483.949706,-10892.128475
18433.854598,-861.416136,2794.816797,-10681.560086
18433.857078,-421.136778,-1129.412267,-9188.438784
18433.859557,-363.709035,669.990328,-10145.567824
18433.862037,-0.000000,1741.974853,-10624.132344
18433.864517,344.566454,976.271621,-10126.425243
18433.866996,-1665.404530,-1014.556782,-9513.862658
18433.869476,-861.416136,1799.402595,-10719.845248
18433.871956,1110.269686,-363.709035,-9667.003304
18433.874436,-287.138712,-459.421939,-9418.149754
18433.876915,38.285162,1933.400661,-10375.278794
18433.879395,306.281293,-267.996131,-9743.573627
18433.881875,1167.697429,-287.138712,-9647.860723
18433.884354,593.420005,1435.693560,-10145.567824
18433.886834,-229.710970,-306.281293,-9762.716208
18433.889314,1282.552914,-19.142581,-9743.573627
18433.891794,-1225.125171,2029.113565,-9858.429112
18433.894273,-669.990328,2699.103893,-10815.558152
18433.896753,-1780.260014,-1244.267752,-9513.862658
18433.899233,2699.103893,-210.568389,-9667.003304
18433.901712,-2737.389054,2182.254211,-10566.704602
18433.904192,1493.121302,1703.689691,-10413.563955
18433.906672,-765.703232,-4421.936165,-8097.311678
18433.909152,-3675.375514,7312.465866,-12423.534939
18433.911631,765.703232,-784.845813,-9915.856854
18433.914111,-1722.832272,-8499.305875,-6872.186507
18433.916591,3503.092286,8652.446522,-13036.097525
18433.919070,-3790.230998,-6317.051664,-7791.030386
18433.921550,-1148.554848,-1493.121302,-9360.722011
18433.924030,535.992262,5647.061336,-11696.116869
18433.926510,-1052.841944,957.129040,-10241.280728
18433.928989,-57.427742,-2488.535504,-8843.872330
18433.931469,-1416.550979,2392.822600,-10853.843314
18433.933968,-2163.111630,1071.984525,-10700.702667
18433.936467,-1129.412267,-2947.957443,-9016.155557
18433.938966,727.418070,-899.701298,-9513.862658
18433.941465,-497.707101,1990.828403,-10738.987829
18433.943963,-650.847747,-593.420005,-9609.575562
18433.946462,-57.427742,-1359.123237,-9284.151688
18433.948961,-57.427742,1799.402595,-10547.562021
18433.951460,-746.560651,1301.695494,-10394.421374
18433.953959,-516.849682,-401.994197,-9628.718142
18433.956458,-842.273555,-1761.117434,-9360.722011
18433.958957,-287.138712,1454.836141,-10528.419440
18433.961455,-1263.410333,-248.853550,-9858.429112
18433.963954,-1397.408398,-2488.535504,-9092.725880
18433.966453,-401.994197,2354.537438,-10624.132344
18433.968952,-229.710970,76.570323,-10049.854920
18433.971451,-95.712904,-2641.676150,-9207.581365
18433.973950,-880.558717,3254.238736,-10681.560086
18433.976449,-1512.263883,-114.855485,-9973.284597
18433.978948,-2373.680019,57.427742,-9934.999435
18433.981446,1301.695494,133.998066,-10298.708470
18433.983945,-3503.092286,-114.855485,-10030.712339
18433.986444,2526.820666,1244.267752,-10222.138147
18433.988943,421.136778,-4039.084549,-8116.454259
18433.991442,-1914.258080,5187.639397,-11638.689126
18433.993941,4268.795518,440.279358,-9915.856854
18433.996440,-287.138712,-6910.471669,-6814.758765
18433.998939,2737.389054,10853.843314,-13514.662045
18434.001437,-2660.818731,-2967.100024,-8575.876198
18434.003936,-727.418070,-3177.668413,-8901.300072
18434.006435,1416.550979,7810.172966,-12710.673651
18434.008934,-784.845813,-4651.647134,-8384.450390
18434.011433,-765.703232,-1550.549045,-9245.866526
18434.013932,803.988394,5111.069074,-11504.691061
18434.016431,-516.849682,3483.949706,-10911.271056
18434.018930,-593.420005,-1990.828403,-8920.442653
18434.021428,478.564520,210.568389,-10030.712339
18434.023927,-0.000000,2411.965181,-10758.130410
18434.026426,363.709035,-1665.404530,-8997.012976
18434.028925,-612.562586,-918.843878,-9437.292334
18434.031424,287.138712,2699.103893,-10987.841379
18434.033937,765.703232,-1129.412267,-9437.292334
18434.036450,497.707101,-823.130974,-9303.294269
18434.038964,689.132909,2775.674216,-10566.704602
18434.041477,421.136778,-344.566454,-9609.575562
18434.043990,229.710970,-497.707101,-9475.577496
18434.046504,459.421939,1761.117434,-10432.706536
18434.049017,1244.267752,593.420005,-9954.142016
18434.051530,-1799.402595,344.566454,-9954.142016
18434.054043,267.996131,995.414202,-10279.565890
18434.056557,-229.710970,-478.564520,-9533.005238
18434.059070,1646.261949,-344.566454,-9705.288466
18434.061583,-1282.552914,2794.816797,-10681.560086
18434.064097,3311.666478,-1646.261949,-9188.438784
18434.066610,-2086.541307,-593.420005,-9360.722011
18434.069123,995.414202,6068.198114,-11906.685258
18434.071636,-612.562586,-8173.882002,-6910.471669
18434.074150,-1512.263883,1761.117434,-10375.278794
18434.076663,1282.552914,5091.926493,-12117.253646
18434.079176,-3924.229064,-8269.594906,-8116.454259
18434.081690,-746.560651,-765.703232,-9552.147819
18434.084203,976.271621,5130.211654,-11638.689126
18434.086716,-1301.695494,-3579.662610,-8480.163294
18434.089229,-153.140646,1148.554848,-10107.282662
18434.091743,229.710970,2469.392923,-10796.415571
18434.094256,-38.285162,-2967.100024,-9016.155557
18434.096769,-114.855485,-1818.545176,-9303.294269
18434.099283,-1493.121302,1856.830338,-10796.415571
18434.101796,-1971.685822,-172.283227,-9839.286531
18434.104309,555.134843,-1225.125171,-9322.436850
18434.106822,95.712904,1493.121302,-10528.419440
18434.109336,-842.273555,1895.115499,-10604.989763
18434.111849,-1703.689691,1071.984525,-10317.851051
18434.114362,-612.562586,-2143.969050,-9016.155557
18434.116876,-133.998066,210.568389,-10068.997501
18434.119389,-516.849682,612.562586,-10470.991698
18434.121902,-2105.683888,-2718.246474,-9150.153622
18434.124415,-574.277424,1933.400661,-10547.562021
18434.126929,440.279358,478.564520,-10030.712339
18434.129442,-1875.972918,-2009.970984,-9437.292334
18434.131955,-248.853550,2967.100024,-10796.415571
18434.134480,-2373.680019,191.425808,-9877.571693
18434.137004,1454.836141,-823.130974,-9437.292334
18434.139529,-631.705166,-1167.697429,-9494.720077
18434.142053,-1914.258080,1895.115499,-10777.272990
18434.144578,-0.000000,-1799.402595,-9552.147819
18434.147102,-4153.940034,-191.425808,-9743.573627
18434.149626,3235.096155,4575.076811,-11466.405899
18434.152151,459.421939,-6297.909083,-7542.176835
18434.154675,-19.142581,6757.331022,-11868.400096
18434.157200,191.425808,2411.965181,-10624.132344
18434.159724,-2258.824534,-4938.785846,-7771.887805
18434.162249,440.279358,6240.481341,-12174.681389
18434.164773,76.570323,-2545.963246,-9016.155557
18434.167298,1397.408398,-4211.367776,-8307.880067
18434.169822,1799.402595,4689.932296,-11734.402030
18434.172346,248.853550,-2086.541307,-9207.581365
18434.174871,-593.420005,-1895.115499,-8671.589102
18434.177395,1722.832272,2105.683888,-10126.425243
18434.179920,57.427742,1416.550979,-10624.132344
18434.182444,612.562586,-1263.410333,-9494.720077
18434.184969,459.421939,-689.132909,-9475.577496
18434.187493,287.138712,1225.125171,-10202.995566
18434.190018,-861.416136,-19.142581,-10030.712339
18434.192542,-306.281293,-191.425808,-9934.999435
18434.195066,1148.554848,669.990328,-9915.856854
18434.197591,1320.838075,612.562586,-9762.716208
18434.200115,669.990328,842.273555,-9915.856854
18434.202640,-1167.697429,248.853550,-9934.999435
18434.205164,-421.136778,1091.127106,-10145.567824
18434.207689,2009.970984,842.273555,-10049.854920
18434.210213,478.564520,-2756.531635,-8901.300072
18434.212738,153.140646,1741.974853,-10490.134278
18434.215262,-1665.404530,1473.978722,-10298.708470
18434.217786,2392.822600,-1033.699363,-9226.723946
18434.220311,-1895.115499,995.414202,-10088.140082
18434.222835,516.849682,5015.356170,-11600.403965
18434.225360,363.709035,-5972.485210,-7599.604578
18434.227884,-4441.078746,4613.361973,-11447.263318
18434.230409,-172.283227,4613.361973,-11944.970419
18434.232933,-3215.953574,-11274.980091,-6068.198114
18434.235467,3177.668413,6412.764568,-12212.966550
18434.238001,2258.824534,4862.215523,-12098.111066
18434.240535,-2718.246474,-5034.498750,-8078.169098
18434.243069,-612.562586,2756.531635,-10585.847182
18434.245603,-1014.556782,3005.385186,-10815.558152
18434.248137,-478.564520,-2277.967115,-9054.440718
18434.250671,-1493.121302,1397.408398,-10394.421374
18434.253205,-555.134843,574.277424,-10356.136213
18434.255739,-1091.127106,-3101.098090,-8977.870395
18434.258273,325.423874,-191.425808,-9858.429112
18434.260807,-1205.982590,1607.976787,-10547.562021
18434.263341,-516.849682,-555.134843,-9667.003304
18434.265875,1014.556782,-267.996131,-9705.288466
18434.268409,133.998066,478.564520,-9915.856854
18434.270943,-1110.269686,287.138712,-9896.714274
18434.273477,-1856.830338,382.851616,-10088.140082
18434.276010,-1895.115499,-842.273555,-9877.571693
18434.278544,421.136778,-1225.125171,-9743.573627
18434.281078,210.568389,57.427742,-9973.284597
18434.283612,-516.849682,248.853550,-9896.714274
18434.286146,-1091.127106,-516.849682,-9781.858789
18434.288680,-727.418070,1952.543242,-10394.421374
18434.291214,-1895.115499,133.998066,-10088.140082
18434.293748,-497.707101,1033.699363,-10260.423309
18434.296282,421.136778,-1703.689691,-9513.862658
18434.298816,-1454.836141,880.558717,-10336.993632
18434.301350,1875.972918,-421.136778,-9858.429112
18434.303884,-3349.951640,-2105.683888,-9207.581365
18434.306418,1473.978722,5857.629725,-11830.114934
18434.308952,3560.520029,-4804.787781,-8059.026517
18434.311486,-497.707101,1244.267752,-9609.575562
18434.314020,1014.556782,7561.319416,-12385.249778
18434.316554,-3809.373579,-6451.049730,-7389.036189
18434.319088,57.427742,3637.090352,-11274.980091
18434.321622,2201.396792,1990.828403,-10700.702667
18434.324156,555.134843,-6776.473603,-7599.604578
18434.326690,823.130974,4058.227130,-11255.837510
18434.329224,535.992262,497.707101,-10088.140082
18434.331758,-727.418070,-1952.543242,-8709.874264
18434.334292,1550.549045,631.705166,-9609.575562
18434.336795,497.707101,1799.402595,-10777.272990
18434.339299,-191.425808,76.570323,-10126.425243
18434.341802,497.707101,-1588.834206,-8843.872330
18434.344306,344.566454,191.425808,-9915.856854
18434.346809,-382.851616,1148.554848,-10585.847182
18434.349313,-287.138712,-478.564520,-9820.143950
18434.351816,1397.408398,210.568389,-9647.860723
18434.354320,2220.539373,1703.689691,-10030.712339
18434.356823,-267.996131,-95.712904,-9705.288466
18434.359327,-1033.699363,401.994197,-9954.142016
18434.361830,1875.972918,803.988394,-9934.999435
18434.364334,708.275490,-1933.400661,-9265.009107
18434.366837,325.423874,95.712904,-9973.284597
18434.369341,-1493.121302,1493.121302,-10356.136213
18434.371844,2124.826469,-267.996131,-9513.862658
18434.374348,-1703.689691,478.564520,-9934.999435
18434.376851,765.703232,4747.360038,-11504.691061
18434.379355,-114.855485,-4862.215523,-8097.311678
18434.381858,-4115.654872,4632.504554,-11408.978157
18434.384362,516.849682,3043.670347,-11351.550414
18434.386865,-3177.668413,-10011.569758,-6393.621987
18434.389369,2852.244539,6297.909083,-12251.251712
18434.391872,-2794.816797,-2603.390989,-9399.007173
18434.394376,-1780.260014,-2909.672282,-8767.302006
18434.396879,-325.423874,3598.805190,-10872.985894
18434.399383,-574.277424,1856.830338,-10451.849117
18434.401886,-1052.841944,-1818.545176,-9150.153622
18434.404389,-306.281293,1531.406464,-10336.993632
18434.406893,-0.000000,-1071.984525,-9667.003304
18434.409396,-1205.982590,-2009.970984,-9360.722011
18434.411900,-612.562586,823.130974,-10336.993632
18434.414403,-1493.121302,478.564520,-10088.140082
18434.416907,210.568389,-114.855485,-9762.716208
18434.419410,937.986459,-95.712904,-9839.286531
18434.421914,-555.134843,363.709035,-9915.856854
18434.424417,-1531.406464,1052.841944,-10145.567824
18434.426921,-2182.254211,-114.855485,-9896.714274
18434.429424,-459.421939,-1512.263883,-9686.145885
18434.431928,478.564520,-229.710970,-9954.142016
18434.434431,-57.427742,248.853550,-9992.427178
18434.436949,-1282.552914,-631.705166,-9667.003304
18434.439466,-784.845813,1818.545176,-10298.708470
18434.441983,-2163.111630,823.130974,-10088.140082
18434.444500,1703.689691,-823.130974,-9513.862658
18434.447017,-459.421939,-1512.263883,-9399.007173
18434.449534,1110.269686,1875.972918,-10566.704602
18434.452051,-3101.098090,-2947.957443,-9245.866526
18434.454568,-1148.554848,2833.101958,-10930.413637
18434.457085,2813.959378,-2163.111630,-9092.725880
18434.459602,-669.990328,-5264.209720,-8001.598774
18434.462119,1339.980656,8901.300072,-12787.243974
18434.464637,229.710970,-1512.263883,-9111.868461
18434.467154,-631.705166,-2297.109696,-8499.305875
18434.469671,229.710970,6661.618118,-12308.679454
18434.472188,-1722.832272,-5532.205851,-7963.313613
18434.474705,1091.127106,-1052.841944,-9399.007173
18434.477222,2239.681954,4249.652938,-11485.548480
18434.479739,-363.709035,-3751.945837,-8595.018779
18434.482256,-708.275490,2048.256146,-10222.138147
18434.484773,-133.998066,3943.371645,-11026.126541
18434.487290,-669.990328,-1033.699363,-9360.722011
18434.489807,459.421939,-727.418070,-9456.434915
18434.492325,708.275490,746.560651,-9992.427178
18434.494842,-38.285162,803.988394,-10011.569758
18434.497359,-574.277424,-1033.699363,-9686.145885
18434.499876,-0.000000,363.709035,-10107.282662
18434.502393,1320.838075,1205.982590,-10222.138147
18434.504910,995.414202,363.709035,-9590.432981
18434.507427,57.427742,842.273555,-10011.569758
18434.509944,248.853550,784.845813,-10030.712339
18434.512461,-229.710970,1033.699363,-10107.282662
18434.514978,708.275490,-1339.980656,-9418.149754
18434.517506,1033.699363,-880.558717,-9609.575562
18434.520034,-650.847747,880.558717,-10241.280728
18434.522561,1186.840010,2450.250342,-10183.852986
18434.525089,2009.970984,-3579.662610,-8499.305875
18434.527616,-2086.541307,4039.084549,-11083.554283
18434.530144,3790.230998,1818.545176,-10394.421374
18434.532671,-2641.676150,-7829.315547,-6910.471669
18434.535199,-1531.406464,8327.022648,-12959.527202
18434.537727,-1761.117434,-3081.955509,-9379.864592
18434.540254,-287.138712,-5647.061336,-7925.028451
18434.542782,3349.951640,6029.912952,-12270.394293
18434.545309,-2699.103893,-3158.525832,-8748.159426
18434.547837,-2507.678085,631.705166,-9839.286531
18434.550364,-363.709035,3751.945837,-11064.411702
18434.552892,-325.423874,-2124.826469,-9934.999435
18434.555420,19.142581,-937.986459,-9628.718142
18434.557947,-880.558717,-172.283227,-10030.712339
18434.560475,-2986.242605,0.000000,-10222.138147
18434.563002,-957.129040,-478.564520,-9724.431046
18434.565530,-114.855485,-421.136778,-9571.290400
18434.568057,95.712904,899.701298,-10298.708470
18434.570585,-689.132909,210.568389,-10068.997501
18434.573113,-497.707101,95.712904,-9686.145885
18434.575640,-1761.117434,363.709035,-10068.997501
18434.578168,-995.414202,-344.566454,-9915.856854
18434.580695,-401.994197,-1397.408398,-9686.145885
18434.583223,-0.000000,325.423874,-10126.425243
18434.585750,-325.423874,631.705166,-10049.854920
18434.588278,-995.414202,421.136778,-9973.284597
18434.590806,-2584.248408,574.277424,-10126.425243
18434.593333,1014.556782,1148.554848,-10222.138147
18434.595861,-210.568389,-2469.392923,-9150.153622
18434.598388,823.130974,1780.260014,-10451.849117
18434.600916,-2297.109696,-1416.550979,-9571.290400
18434.603443,-2392.822600,1837.687757,-10566.704602
18434.605971,3617.947771,-1435.693560,-9360.722011
18434.608499,-2584.248408,-2660.818731,-9035.298138
18434.611026,2775.674216,8307.880067,-12672.388490
18434.613554,823.130974,-6010.770371,-7331.608446
18434.616081,1914.258080,2737.389054,-7733.602643
18434.618618,708.275490,6948.756830,-12346.964616
18434.621155,-440.279358,-4249.652938,-8614.161360
18434.623691,803.988394,-3139.383251,-8652.446522
18434.626228,2411.965181,5053.641331,-11676.974288
18434.628765,-191.425808,-3254.238736,-8786.444587
18434.631301,-803.988394,880.558717,-9896.714274
18434.633838,-191.425808,4307.080680,-11083.554283
18434.636375,-880.558717,-669.990328,-9571.290400
18434.638912,1416.550979,-995.414202,-9552.147819
18434.641448,1856.830338,57.427742,-9801.001370
18434.643985,-363.709035,612.562586,-9801.001370
18434.646522,-306.281293,-19.142581,-9896.714274
18434.649058,-133.998066,-172.283227,-9877.571693
18434.651595,727.418070,1167.697429,-10126.425243
18434.654132,995.414202,1148.554848,-9973.284597
18434.656668,401.994197,-593.420005,-9552.147819
18434.659205,401.994197,1684.547110,-10222.138147
18434.661742,727.418070,-1148.554848,-9475.577496
18434.664279,-248.853550,-516.849682,-9609.575562
18434.666815,-1014.556782,1703.689691,-10566.704602
18434.669352,2163.111630,-555.134843,-9724.431046
18434.671889,-2258.824534,-153.140646,-9743.573627
18434.674425,1722.832272,4689.932296,-11274.980091
18434.676962,-765.703232,-4575.076811,-8039.883936
18434.679499,-5206.781978,5474.778109,-9456.434915
18434.682036,-593.420005,7944.171032,-13036.097525
18434.684572,-2718.246474,-8729.016845,-7025.327154
18434.687109,2526.820666,497.707101,-10011.569758
18434.689646,-210.568389,2297.109696,-11313.265253
18434.692182,-3101.098090,-3943.371645,-8614.161360
18434.694719,38.285162,3617.947771,-10815.558152
18434.697256,-172.283227,880.558717,-10164.710405
18434.699792,-1167.697429,-1167.697429,-9475.577496
18434.702329,-38.285162,765.703232,-10107.282662
18434.704866,-937.986459,229.710970,-10126.425243
18434.707403,-210.568389,-1512.263883,-9533.005238
18434.709939,-1588.834206,-1052.841944,-9705.288466
18434.712476,57.427742,382.851616,-9915.856854
18434.715013,-880.558717,1129.412267,-10241.280728
18434.717549,-172.283227,-229.710970,-9973.284597
18434.720093,-937.986459,-191.425808,-9724.431046
18434.722637,-689.132909,-19.142581,-9781.858789
18434.725180,-1339.980656,229.710970,-9973.284597
18434.727724,19.142581,-1071.984525,-9686.145885
18434.730267,-593.420005,-306.281293,-9954.142016
18434.732811,784.845813,-325.423874,-9781.858789
18434.735355,-1148.554848,191.425808,-9647.860723
18434.737898,-2469.392923,899.701298,-10317.851051
18434.740442,-746.560651,2316.252277,-10853.843314
18434.742985,689.132909,-2641.676150,-9724.431046
18434.745529,-2431.107762,-727.418070,-9590.432981
18434.748073,2316.252277,248.853550,-10011.569758
18434.750616,-3617.947771,-2143.969050,-9207.581365
18434.753160,1684.547110,4307.080680,-11428.120738
18434.755703,2641.676150,-4307.080680,-8384.450390
18434.758247,-765.703232,2048.256146,-10202.995566
18434.760790,421.136778,6336.194245,-11810.972354
18434.763334,-2986.242605,-5513.063270,-7446.463931
18434.765878,497.707101,4575.076811,-11408.978157
18434.768421,2488.535504,57.427742,-10164.710405
18434.770965,95.712904,-5704.489078,-7810.172966
18434.773508,1454.836141,4728.217458,-11504.691061
18434.776052,172.283227,2890.529701,-10834.700733
18434.778596,-401.994197,-1952.543242,-8882.157491
18434.781139,1225.125171,1952.543242,-10183.852986
18434.783683,421.136778,1473.978722,-10604.989763
18434.786226,114.855485,-574.277424,-9858.429112
18434.788770,708.275490,-1167.697429,-9073.583299
18434.791314,-153.140646,1014.556782,-10068.997501
18434.793857,363.709035,784.845813,-10336.993632
18434.796401,-344.566454,-689.132909,-9724.431046
18434.798944,306.281293,1856.830338,-10470.991698
18434.801488,899.701298,765.703232,-9858.429112
18434.804032,1416.550979,-287.138712,-9590.432981
18434.806575,-842.273555,153.140646,-10011.569758
18434.809119,267.996131,765.703232,-10011.569758
18434.811662,-1722.832272,1091.127106,-10298.708470
18434.814206,2469.392923,-650.847747,-9609.575562
18434.816750,-1952.543242,-325.423874,-9839.286531
18434.819293,1320.838075,4421.936165,-11198.409768
18434.821811,-114.855485,-4613.361973,-8059.026517
18434.824328,-5015.356170,5149.354235,-11638.689126
18434.826845,574.277424,3215.953574,-11332.407834
18434.829363,-2584.248408,-9762.716208,-6431.907149
18434.831880,3081.955509,6374.479406,-12193.823970
18434.834398,-3311.666478,-2048.256146,-9590.432981
18434.836915,-1818.545176,-3483.949706,-8690.731683
18434.839432,-363.709035,3062.812928,-10643.274925
18434.841950,-516.849682,1761.117434,-10394.421374
18434.844467,-1550.549045,-1186.840010,-9475.577496
18434.846985,-0.000000,153.140646,-10011.569758
18434.849502,-95.712904,325.423874,-10068.997501
18434.852020,210.568389,-1761.117434,-9341.579430
18434.854537,-2029.113565,-287.138712,-9934.999435
18434.857054,-784.845813,1416.550979,-10413.563955
18434.859572,-535.992262,-1091.127106,-9207.581365
18434.862089,210.568389,-38.285162,-9877.571693
18434.864607,-363.709035,267.996131,-10164.710405
18434.867124,-1167.697429,-823.130974,-9571.290400
18434.869642,-574.277424,1033.699363,-10107.282662
18434.872159,-689.132909,172.283227,-10202.995566
18434.874676,-1282.552914,-1301.695494,-9647.860723
18434.877194,-76.570323,1282.552914,-10126.425243
18434.879711,-1837.687757,114.855485,-9877.571693
18434.882229,1646.261949,-708.275490,-9628.718142
18434.884746,-880.558717,-1205.982590,-9513.862658
18434.887264,937.986459,1665.404530,-10375.278794
18434.889781,-3196.810994,-1416.550979,-9494.720077
18434.892298,803.988394,2469.392923,-10681.560086
18434.894816,3139.383251,-3311.666478,-8556.733618
18434.897333,-2239.681954,306.281293,-9954.142016
18434.899851,3790.230998,4460.221326,-11236.694930
18434.902368,-497.707101,-3828.516160,-8403.592971
18434.904885,1091.127106,114.855485,-9245.866526
18434.907403,1378.265818,5704.489078,-11657.831707
18434.909920,-3120.240670,-5876.772306,-7848.458128
18434.912438,516.849682,2699.103893,-10853.843314
18434.914955,2163.111630,1339.980656,-10643.274925
18434.917473,-669.990328,-3388.236802,-8614.161360
18434.919990,401.994197,3158.525832,-10796.415571
18434.922518,-784.845813,1320.838075,-9896.714274
18434.925046,248.853550,-440.279358,-9533.005238
18434.927574,1761.117434,153.140646,-10030.712339
18434.930102,325.423874,133.998066,-10145.567824
18434.932630,-76.570323,631.705166,-9801.001370
18434.935157,287.138712,-76.570323,-9801.001370
18434.937685,-440.279358,-229.710970,-9762.716208
18434.940213,880.558717,1627.119368,-10356.136213
18434.942741,1531.406464,57.427742,-9475.577496
18434.945269,114.855485,1033.699363,-10088.140082
18434.947797,516.849682,344.566454,-10030.712339
18434.950325,-76.570323,-1129.412267,-9552.147819
18434.952853,-1473.978722,1301.695494,-10145.567824
18434.955381,2469.392923,631.705166,-9954.142016
18434.957909,-1837.687757,-1282.552914,-9590.432981
18434.960436,1818.545176,4077.369710,-11064.411702
18434.962964,-497.707101,-4019.941968,-8327.022648
18434.965492,-5838.487144,-1512.263883,-9437.292334
18434.968020,-1186.840010,7829.315547,-12940.384621
18434.970548,-2373.680019,-8250.452325,-7274.180704
18434.973076,2660.818731,153.140646,-9858.429112
18434.975604,114.855485,2813.959378,-11332.407834
18434.978132,-3215.953574,-4192.225195,-8709.874264
18434.980660,76.570323,3292.523898,-10777.272990
18434.983188,-325.423874,631.705166,-10088.140082
18434.985715,-1761.117434,-325.423874,-9667.003304
18434.988243,248.853550,325.423874,-10049.854920
18434.990771,-57.427742,-899.701298,-9628.718142
18434.993299,-229.710970,-191.425808,-10011.569758
18434.995827,-2411.965181,-153.140646,-10126.425243
18434.998355,-1990.828403,861.416136,-10145.567824
18435.000883,-325.423874,631.705166,-9839.286531
18435.003411,-57.427742,-1167.697429,-9513.862658
18435.005939,-440.279358,1014.556782,-10298.708470
18435.008467,-440.279358,-325.423874,-9762.716208
18435.010994,-1148.554848,-1071.984525,-9571.290400
18435.013522,-1512.263883,1205.982590,-10451.849117
18435.016050,-172.283227,-765.703232,-9667.003304
18435.018578,-421.136778,-1205.982590,-9418.149754
18435.021106,478.564520,401.994197,-10011.569758
18435.023642,-1971.685822,2009.970984,-10604.989763
18435.026179,-114.855485,-1263.410333,-9667.003304
18435.028715,-3713.660675,497.707101,-9475.577496
18435.031251,3120.240670,2067.398726,-10470.991698
18435.033788,765.703232,-3943.371645,-8422.735552
18435.036324,-497.707101,3675.375514,-11255.837510
18435.038860,3828.516160,-574.277424,-9762.716208
18435.041397,-899.701298,-4383.651003,-7752.745224
18435.043933,1818.545176,8556.733618,-12576.675586
18435.046469,-2622.533570,-3024.527766,-8499.305875
18435.049006,-593.420005,-19.142581,-9896.714274
18435.051542,4019.941968,3809.373579,-11294.122672
18435.054078,-172.283227,-5359.922624,-8020.741355
18435.056614,401.994197,2258.824534,-10681.560086
18435.059151,-1033.699363,1378.265818,-10336.993632
18435.061687,-861.416136,210.568389,-9571.290400
18435.064223,899.701298,803.988394,-9705.288466
18435.066760,976.271621,593.420005,-10164.710405
18435.069296,57.427742,-57.427742,-9915.856854
18435.071832,-229.710970,-76.570323,-9628.718142
18435.074369,-267.996131,727.418070,-10030.712339
18435.076905,-593.420005,650.847747,-10183.852986
18435.079441,440.279358,248.853550,-9858.429112
18435.081978,1952.543242,516.849682,-9667.003304
18435.084514,-267.996131,1914.258080,-10241.280728
18435.087050,325.423874,19.142581,-9915.856854
18435.089587,-38.285162,-1339.980656,-9475.577496
18435.092123,-861.416136,1282.552914,-9399.007173
18435.094659,1971.685822,2718.246474,-10528.419440
18435.097195,1454.836141,-4230.510357,-8671.589102
18435.099732,-1186.840010,3254.238736,-10738.987829
18435.102268,3924.229064,1301.695494,-9915.856854
18435.104804,-4747.360038,-4977.071008,-8173.882002
18435.107341,-1722.832272,7886.743290,-12844.671717
18435.109877,-1856.830338,-5015.356170,-8537.591037
18435.112413,2239.681954,-3464.807125,-8556.733618
18435.114950,1493.121302,4402.793584,-11753.544611
18435.117486,-3407.379382,-2967.100024,-9073.583299
18435.120022,-1225.125171,1473.978722,-10164.710405
18435.122559,-229.710970,1531.406464,-10375.278794
18435.125101,-325.423874,-784.845813,-9705.288466
18435.127644,765.703232,153.140646,-10049.854920
18435.130187,-784.845813,-1378.265818,-9437.292334
18435.132730,-1148.554848,1225.125171,-10528.419440
18435.135273,-555.134843,-1435.693560,-9513.862658
18435.137816,-2488.535504,-440.279358,-9724.431046
18435.140359,516.849682,3560.520029,-11045.269122
18435.142902,-267.996131,-3483.949706,-8652.446522
18435.145444,-421.136778,1091.127106,-10279.565890
18435.147987,-803.988394,1454.836141,-10490.134278
18435.150530,-2622.533570,-2718.246474,-9054.440718
18435.153073,-306.281293,1282.552914,-10451.849117
18435.155616,-344.566454,478.564520,-10126.425243
18435.158159,-1052.841944,-1531.406464,-9609.575562
18435.160702,-1110.269686,2067.398726,-10432.706536
18435.163244,-57.427742,-38.285162,-9839.286531
18435.165787,-2718.246474,401.994197,-10126.425243
18435.168330,765.703232,-1091.127106,-9590.432981
18435.170873,-4575.076811,899.701298,-10145.567824
18435.173416,3732.803256,3235.096155,-11006.983960
18435.175959,957.129040,-7082.754896,-7484.749093
18435.178502,-229.710970,7312.465866,-12232.109131
18435.181044,-1646.261949,2507.678085,-10700.702667
18435.183587,-1646.261949,-5283.352301,-7389.036189
18435.186130,2048.256146,6891.329088,-12117.253646
18435.188673,4249.652938,2354.537438,-10758.130410
18435.191216,-440.279358,-5723.631659,-7771.887805
18435.193759,823.130974,3771.088418,-11236.694930
18435.196302,-918.843878,306.281293,-10145.567824
18435.198845,-593.420005,-516.849682,-9494.720077
18435.201387,669.990328,2679.961312,-10375.278794
18435.203930,-267.996131,344.566454,-9934.999435
18435.206473,1205.982590,-133.998066,-9762.716208
18435.209016,861.416136,-593.420005,-9494.720077
18435.211559,-38.285162,1473.978722,-10356.136213
18435.214102,-631.705166,-95.712904,-9839.286531
18435.216645,-133.998066,19.142581,-9896.714274
18435.219187,2756.531635,1416.550979,-10011.569758
18435.221730,38.285162,-38.285162,-9590.432981
18435.224273,-1091.127106,1397.408398,-10470.991698
18435.226821,-842.273555,669.990328,-10068.997501
18435.229369,1148.554848,-2277.967115,-9131.011042
18435.231917,899.701298,2469.392923,-10604.989763
18435.234465,2967.100024,-2143.969050,-9226.723946
18435.237013,-2871.387120,708.275490,-9801.001370
18435.239561,3196.810994,4230.510357,-10987.841379
18435.242109,-2067.398726,-7216.752962,-7025.327154
18435.244657,-2316.252277,5053.641331,-11753.544611
18435.247205,-593.420005,248.853550,-10681.560086
18435.249753,287.138712,-6680.760699,-7446.463931
18435.252301,1129.412267,765.703232,-10260.423309
18435.254849,-95.712904,2545.963246,-10604.989763
18435.257397,-3369.094221,-2431.107762,-8882.157491
18435.259945,-382.851616,2182.254211,-10451.849117
18435.262493,344.566454,-382.851616,-9934.999435
18435.265041,459.421939,-95.712904,-9915.856854
18435.267589,-842.273555,-1435.693560,-9322.436850
18435.270137,-1588.834206,880.558717,-10241.280728
18435.272685,-1033.699363,19.142581,-10088.140082
18435.275233,-1646.261949,-440.279358,-9839.286531
18435.277781,210.568389,1512.263883,-10413.563955
18435.280329,-440.279358,-1244.267752,-9341.579430
18435.282877,-459.421939,574.277424,-10088.140082
18435.285425,-1416.550979,421.136778,-10183.852986
18435.287973,-1148.554848,-1454.836141,-9571.290400
18435.290521,-727.418070,899.701298,-10183.852986
18435.293069,-1761.117434,267.996131,-10145.567824
18435.295617,1071.984525,-38.285162,-9801.001370
18435.298165,-363.709035,-1646.261949,-9265.009107
18435.300713,248.853550,2622.533570,-10604.989763
18435.303261,-3445.664544,-1359.123237,-9686.145885
18435.305809,-1244.267752,2411.965181,-10643.274925
18435.308357,4613.361973,-2373.680019,-9016.155557
18435.310905,-2277.967115,-1550.549045,-9303.294269
18435.313453,3120.240670,6125.625856,-11868.400096
18435.316001,-1359.123237,-918.843878,-9437.292334
18435.318549,-325.423874,-1914.258080,-8748.159426
18435.321098,1493.121302,6431.907149,-12098.111066
18435.323646,-2584.248408,-4823.930362,-8212.167163
18435.326194,287.138712,861.416136,-10164.710405
18435.328746,3081.955509,2163.111630,-10758.130410
18435.331299,-650.847747,-3101.098090,-8863.014910
18435.333851,57.427742,2373.680019,-10490.134278
18435.336404,-497.707101,976.271621,-9896.714274
18435.338957,-133.998066,153.140646,-9724.431046
18435.341509,1282.552914,344.566454,-10107.282662
18435.344062,421.136778,-1052.841944,-9265.009107
18435.346614,325.423874,1646.261949,-10202.995566
18435.349167,-114.855485,1091.127106,-10317.851051
18435.351720,-57.427742,-612.562586,-9705.288466
18435.354272,1627.119368,2086.541307,-10126.425243
18435.356825,1225.125171,-19.142581,-9609.575562
18435.359377,-459.421939,-478.564520,-9647.860723
18435.361930,-899.701298,2507.678085,-10681.560086
18435.364483,1301.695494,-1761.117434,-9437.292334
18435.367035,-918.843878,1244.267752,-10145.567824
18435.369588,3905.086483,593.420005,-10011.569758
18435.372140,-3407.379382,-2009.970984,-9207.581365
18435.374693,363.709035,6049.055533,-11676.974288
18435.377246,306.281293,-6336.194245,-7446.463931
18435.379798,-2737.389054,-7178.467800,-7465.606512
18435.382351,2469.392923,7044.469734,-12653.245909
18435.384903,-4192.225195,-4096.512291,-8633.303941
18435.387456,-727.418070,-1933.400661,-9131.011042
18435.390009,1531.406464,3981.656806,-11217.552349
18435.392561,-2239.681954,-2373.680019,-8939.585234
18435.395114,-765.703232,1339.980656,-10222.138147
18435.397666,382.851616,-153.140646,-9992.427178
18435.400219,-267.996131,-95.712904,-9915.856854
18435.402772,-325.423874,-1148.554848,-9571.290400
18435.405324,-1856.830338,-421.136778,-9858.429112
18435.407877,-1167.697429,2067.398726,-10566.704602
18435.410429,-267.996131,-1148.554848,-10107.282662
18435.412982,114.855485,-1531.406464,-9341.579430
18435.415535,-440.279358,497.707101,-10088.140082
18435.418087,-1129.412267,650.847747,-10145.567824
18435.420640,-1627.119368,-1952.543242,-9379.864592
18435.423192,-803.988394,555.134843,-10164.710405
18435.425745,-727.418070,1014.556782,-10222.138147
18435.428298,918.843878,-2756.531635,-8958.727814
18435.430854,-1148.554848,612.562586,-9839.286531
18435.433410,478.564520,2182.254211,-10604.989763
18435.435966,-3790.230998,-1722.832272,-9379.864592
18435.438522,3483.949706,325.423874,-9858.429112
18435.441078,-1186.840010,-2009.970984,-9188.438784
18435.443634,-2392.822600,2220.539373,-10758.130410
18435.446190,3885.943902,2277.967115,-10528.419440
18435.448746,133.998066,-7101.897477,-6757.331022
18435.451302,3043.670347,8288.737486,-12366.107197
18435.453858,-1607.976787,19.142581,-9858.429112
18435.456414,-2507.678085,-3407.379382,-8748.159426
18435.458970,3713.660675,5168.496816,-11715.259450
18435.461526,497.707101,-4173.082614,-8365.307810
18435.464082,38.285162,153.140646,-9934.999435
18435.466638,-114.855485,2507.678085,-10719.845248
18435.469194,-631.705166,-497.707101,-9533.005238
18435.471750,1225.125171,1282.552914,-9915.856854
18435.474306,229.710970,-325.423874,-9858.429112
18435.476862,38.285162,191.425808,-9858.429112
18435.479418,535.992262,631.705166,-9896.714274
18435.481974,153.140646,-555.134843,-9667.003304
18435.484530,669.990328,1148.554848,-10260.423309
18435.487086,516.849682,1722.832272,-10260.423309
18435.489642,421.136778,-689.132909,-9399.007173
18435.492198,689.132909,-19.142581,-9647.860723
18435.494754,-765.703232,2316.252277,-10604.989763
18435.497310,1110.269686,-1397.408398,-9571.290400
18435.499866,-1741.974853,459.421939,-10030.712339
18435.502422,3483.949706,2507.678085,-10547.562021
18435.504978,-2507.678085,-3560.520029,-8652.446522
18435.507534,-5417.350366,2756.531635,-10643.274925
18435.510090,803.988394,3943.371645,-11447.263318
18435.512646,-2967.100024,-8288.737486,-7101.897477
18435.515202,2507.678085,4919.643266,-11925.827838
18435.517758,-3579.662610,-823.130974,-9915.856854
18435.520314,-1895.115499,-3617.947771,-8614.161360
18435.522870,1741.974853,3445.664544,-10777.272990
18435.525426,-880.558717,-440.279358,-9820.143950
18435.527982,-1473.978722,153.140646,-9877.571693
18435.530538,172.283227,-727.418070,-9647.860723
18435.533097,-325.423874,612.562586,-10164.710405
18435.535656,-133.998066,-1320.838075,-9456.434915
18435.538215,-1837.687757,-880.558717,-9647.860723
18435.540774,-1320.838075,1129.412267,-10279.565890
18435.543333,-306.281293,918.843878,-10222.138147
18435.545893,-248.853550,-1512.263883,-9265.009107
18435.548452,-1052.841944,593.420005,-10145.567824
18435.551011,-1263.410333,191.425808,-10145.567824
18435.553570,-612.562586,-1550.549045,-9456.434915
18435.556129,-57.427742,-248.853550,-9915.856854
18435.558688,-1607.976787,153.140646,-10279.565890
18435.561247,-880.558717,1799.402595,-10394.421374
18435.563807,-153.140646,-1531.406464,-9265.009107
18435.566366,-1205.982590,1646.261949,-10490.134278
18435.568925,-1091.127106,-401.994197,-10088.140082
18435.571484,-3215.953574,1263.410333,-9513.862658
18435.574043,2048.256146,3866.801322,-11313.265253
18435.576602,1493.121302,-5053.641331,-8231.309744
18435.579162,-421.136778,3943.371645,-10987.841379
18435.581721,-689.132909,4402.793584,-11217.552349
18435.584280,-2258.824534,-4747.360038,-7714.460062
18435.586839,1875.972918,5091.926493,-11485.548480
18435.589398,421.136778,-1473.978722,-9533.005238
18435.591957,-803.988394,-2450.250342,-8939.585234
18435.594516,2392.822600,3120.240670,-10911.271056
18435.597076,-535.992262,-1627.119368,-9341.579430
18435.599635,38.285162,1205.982590,-10183.852986
18435.602194,-631.705166,1301.695494,-9934.999435
18435.604753,-1205.982590,-95.712904,-9839.286531
18435.607312,306.281293,2316.252277,-10834.700733
18435.609871,1071.984525,-1914.258080,-9016.155557
18435.612430,325.423874,76.570323,-9858.429112
18435.614990,1014.556782,2392.822600,-10643.274925
18435.617549,-1282.552914,114.855485,-9839.286531
18435.620108,114.855485,746.560651,-9839.286531
18435.622667,1071.984525,612.562586,-9858.429112
18435.625226,-1301.695494,1033.699363,-10279.565890
18435.627785,1473.978722,-363.709035,-9877.571693
18435.630345,-1722.832272,555.134843,-10183.852986
18435.632904,2947.957443,1282.552914,-10222.138147
18435.635465,459.421939,-3254.238736,-8709.874264
18435.638026,-5781.059402,3694.518094,-11083.554283
18435.640588,746.560651,3139.383251,-11179.267187
18435.643149,-2469.392923,-8288.737486,-7025.327154
18435.645711,2603.390989,5302.494882,-11964.113000
18435.648272,-3828.516160,-918.843878,-9839.286531
18435.650833,-1722.832272,-3943.371645,-8480.163294
18435.653395,1627.119368,3675.375514,-10968.698798
18435.655956,-650.847747,-421.136778,-9667.003304
18435.658518,-1378.265818,-306.281293,-9743.573627
18435.661079,191.425808,-133.998066,-9934.999435
18435.663640,-574.277424,516.849682,-10202.995566
18435.666202,-535.992262,-1493.121302,-9667.003304
18435.668763,-114.855485,-1684.547110,-9169.296203
18435.671325,-765.703232,650.847747,-10049.854920
18435.673886,-555.134843,1493.121302,-10490.134278
18435.676447,-612.562586,-1282.552914,-9475.577496
18435.679009,-1416.550979,38.285162,-9973.284597
18435.681570,-612.562586,401.994197,-10202.995566
18435.684132,-1033.699363,-1225.125171,-9513.862658
18435.686693,-1129.412267,-153.140646,-9992.427178
18435.689254,1799.402595,-421.136778,-9801.001370
18435.691816,-1339.980656,-803.988394,-9494.720077
18435.694377,976.271621,1473.978722,-10145.567824
18435.696939,-3675.375514,-114.855485,-10011.569758
18435.699500,1014.556782,-459.421939,-10451.849117
18435.702061,3675.375514,-4192.225195,-8173.882002
18435.704623,-1856.830338,2354.537438,-10624.132344
18435.707184,3751.945837,2507.678085,-10624.132344
18435.709746,-0.000000,-7389.036189,-6680.760699
18435.712307,3483.949706,7733.602643,-12174.681389
18435.714868,-1512.263883,555.134843,-9954.142016
18435.717430,-1761.117434,-3235.096155,-8614.161360
18435.719991,3254.238736,4000.799387,-11217.552349
18435.722553,574.277424,-2871.387120,-8863.014910
18435.725114,19.142581,-191.425808,-9686.145885
18435.727675,325.423874,1665.404530,-10394.421374
18435.730237,-153.140646,478.564520,-9934.999435
18435.732798,765.703232,421.136778,-9858.429112
18435.735360,516.849682,-172.283227,-9820.143950
18435.737922,114.855485,497.707101,-9992.427178
18435.740485,746.560651,497.707101,-9858.429112
18435.743048,1071.984525,-593.420005,-9571.290400
18435.745610,-478.564520,2450.250342,-10681.560086
18435.748173,708.275490,0.000000,-9743.573627
18435.750736,57.427742,-976.271621,-9226.723946
18435.753299,38.285162,2833.101958,-10566.704602
18435.755861,1359.123237,-1129.412267,-9724.431046
18435.758424,-459.421939,38.285162,-9877.571693
18435.760987,3483.949706,746.560651,-9934.999435
18435.763549,-4249.652938,-555.134843,-9016.155557
18435.766112,-3924.229064,5398.207786,-11830.114934
18435.768675,1493.121302,-2641.676150,-9131.011042
18435.771237,-1780.260014,-4383.651003,-8384.450390
18435.773800,1971.685822,7159.325219,-12863.814298
18435.776363,-4345.365842,-5704.489078,-8078.169098
18435.778926,-306.281293,-401.994197,-9801.001370
18435.781488,555.134843,3426.521963,-11006.983960
18435.784051,-1933.400661,-2660.818731,-8729.016845
18435.786614,-153.140646,995.414202,-9992.427178
18435.789176,248.853550,497.707101,-10279.565890
18435.791739,-708.275490,-133.998066,-10107.282662
18435.794302,-1263.410333,-1454.836141,-9437.292334
18435.796865,-1339.980656,-306.281293,-9858.429112
18435.799427,-497.707101,1225.125171,-10317.851051
18435.801990,-229.710970,-325.423874,-9667.003304
18435.804553,-880.558717,-440.279358,-9724.431046
18435.807115,-1703.689691,593.420005,-10202.995566
18435.809678,-229.710970,-957.129040,-9686.145885
18435.812241,-823.130974,-1167.697429,-9513.862658
18435.814803,-1895.115499,1110.269686,-10451.849117
18435.817366,1148.554848,210.568389,-9915.856854
18435.819929,-574.277424,-2699.103893,-8863.014910
18435.822492,1225.125171,2679.961312,-10470.991698
18435.825054,-3560.520029,-401.994197,-9954.142016
18435.827617,918.843878,727.418070,-10547.562021
18435.830180,4843.072942,-1856.830338,-9150.153622
18435.832742,-1837.687757,-2143.969050,-9150.153622
18435.835305,2354.537438,7523.034254,-12557.533005
18435.837868,-497.707101,-5436.492947,-7657.032320
18435.840432,2220.539373,1512.263883,-9781.858789
18435.842996,689.132909,5991.627790,-11964.113000
18435.845560,-3866.801322,-4957.928427,-8173.882002
18435.848124,1205.982590,1799.402595,-10528.419440
18435.850688,2392.822600,937.986459,-10241.280728
18435.853252,114.855485,-2239.681954,-8882.157491
18435.855817,153.140646,1397.408398,-10222.138147
18435.858381,-631.705166,1550.549045,-10279.565890
18435.860945,-306.281293,1320.838075,-10241.280728
18435.863509,1167.697429,-325.423874,-9705.288466
18435.866073,861.416136,-957.129040,-9379.864592
18435.868637,1282.552914,1741.974853,-10260.423309
18435.871201,1761.117434,-478.564520,-9456.434915
18435.873765,-1014.556782,-535.992262,-9628.718142
18435.876330,-612.562586,3101.098090,-10796.415571
18435.878894,689.132909,133.998066,-9647.860723
18435.881458,1378.265818,-2775.674216,-8843.872330
18435.884022,2986.242605,2737.389054,-10585.847182
18435.886586,210.568389,-2450.250342,-9322.436850
18435.889150,-2048.256146,1933.400661,-10317.851051
18435.891714,3560.520029,708.275490,-9896.714274
18435.894278,-1071.984525,-5991.627790,-7771.887805
18435.896842,-1588.834206,3885.943902,-11255.837510
18435.899407,-153.140646,-114.855485,-10279.565890
18435.901971,267.996131,-5934.200048,-7848.458128
18435.904535,1933.400661,4575.076811,-11772.687192
18435.907099,-3349.951640,-861.416136,-9647.860723
18435.909663,-2105.683888,-650.847747,-9303.294269
18435.912227,191.425808,2947.957443,-10815.558152
18435.914791,-555.134843,-421.136778,-9915.856854
18435.917355,-650.847747,-1531.406464,-9284.151688
18435.919920,-421.136778,-267.996131,-9801.001370
18435.922484,-650.847747,1167.697429,-10490.134278
18435.925048,-823.130974,574.277424,-10164.710405
18435.927612,-229.710970,-1780.260014,-9131.011042
18435.930176,-421.136778,1359.123237,-10394.421374
18435.932740,-1129.412267,382.851616,-10145.567824
18435.935304,-746.560651,-1990.828403,-9322.436850
18435.937868,-497.707101,-172.283227,-9934.999435
18435.940432,-2201.396792,784.845813,-10432.706536
18435.942997,229.710970,172.283227,-9896.714274
18435.945562,-650.847747,-1952.543242,-9226.723946
18435.948127,976.271621,2507.678085,-10528.419440
18435.950691,-3254.238736,-612.562586,-9896.714274
18435.953256,-95.712904,1722.832272,-10490.134278
18435.955821,3617.947771,-3369.094221,-8537.591037
18435.958386,-1473.978722,-3311.666478,-8748.159426
18435.960950,2124.826469,7944.171032,-12557.533005
18435.963515,-842.273555,-3522.234867,-8441.878133
18435.966080,1167.697429,-210.568389,-9226.723946
18435.968644,1225.125171,6163.911018,-12078.968485
18435.971209,-3349.951640,-4192.225195,-8346.165229
18435.973774,650.847747,478.564520,-10088.140082
18435.976339,2622.533570,1665.404530,-10451.849117
18435.978903,401.994197,-2124.826469,-9054.440718
18435.981468,172.283227,823.130974,-9992.427178
18435.984033,-612.562586,1799.402595,-10375.278794
18435.986598,-306.281293,1052.841944,-10164.710405
18435.989162,1205.982590,631.705166,-9992.427178
18435.991727,1052.841944,-1818.545176,-9073.583299
18435.994292,1761.117434,1933.400661,-10394.421374
18435.996856,-191.425808,325.423874,-9858.429112
18435.999421,-1493.121302,-133.998066,-9743.573627
18436.001986,823.130974,1454.836141,-10088.140082
18436.004551,-382.851616,669.990328,-10030.712339
18436.007115,1875.972918,-344.566454,-9839.286531
18436.009680,-1473.978722,1397.408398,-10413.563955
18436.012245,2890.529701,823.130974,-10088.140082
18436.014810,-3139.383251,-2239.681954,-9016.155557
18436.017374,-1703.689691,5781.059402,-11810.972354
18436.019939,497.707101,-5398.207786,-7963.313613
18436.022504,-2297.109696,-7465.606512,-7331.608446
18436.025068,2526.820666,5991.627790,-12174.681389
18436.027633,-3866.801322,-1952.543242,-9437.292334
18436.030198,-1052.841944,-3426.521963,-8690.731683
18436.032763,1071.984525,3483.949706,-10930.413637
18436.035327,-421.136778,-708.275490,-9513.862658
18436.037892,-842.273555,-1091.127106,-9265.009107
18436.040457,267.996131,918.843878,-10394.421374
18436.043022,-803.988394,363.709035,-10279.565890
18436.045587,-708.275490,-2660.818731,-9016.155557
18436.048152,-1091.127106,344.566454,-10088.140082
18436.050718,-1129.412267,2354.537438,-10930.413637
18436.053283,-823.130974,803.988394,-10145.567824
18436.055849,-1110.269686,-1856.830338,-9226.723946
18436.058414,-899.701298,937.986459,-10356.136213
18436.060979,-440.279358,708.275490,-10451.849117
18436.063545,-3101.098090,-2067.398726,-9437.292334
18436.066110,1550.549045,746.560651,-10126.425243
18436.068676,-631.705166,-631.705166,-9590.432981
18436.071241,1071.984525,-95.712904,-9705.288466
18436.073807,-3292.523898,38.285162,-9877.571693
18436.076372,2182.254211,1071.984525,-10241.280728
18436.078937,1933.400661,-4058.227130,-8365.307810
18436.081503,-937.986459,4268.795518,-11428.120738
18436.084068,3311.666478,-516.849682,-9609.575562
18436.086634,38.285162,-6910.471669,-6910.471669
18436.089199,3617.947771,3943.371645,-10777.272990
18436.091764,-114.855485,3656.232933,-11140.982026
18436.094330,-2450.250342,-4307.080680,-8250.452325
18436.096895,1646.261949,2239.681954,-10604.989763
18436.099461,1473.978722,306.281293,-10030.712339
18436.102026,497.707101,-1933.400661,-9131.011042
18436.104591,823.130974,861.416136,-9877.571693
18436.107157,-363.709035,2622.533570,-10719.845248
18436.109722,-153.140646,784.845813,-10049.854920
18436.112288,995.414202,-2048.256146,-9073.583299
18436.114853,899.701298,1435.693560,-10279.565890
18436.117418,2660.818731,2507.678085,-10509.276859
18436.119984,-172.283227,-1990.828403,-9169.296203
18436.122549,-1665.404530,708.275490,-10126.425243
18436.125115,1703.689691,2813.959378,-10470.991698
18436.127680,-497.707101,-1971.685822,-9092.725880
18436.130246,2622.533570,784.845813,-10222.138147
18436.132811,-2392.822600,1837.687757,-10681.560086
18436.135376,1607.976787,995.414202,-10126.425243
18436.137942,-1301.695494,-2852.244539,-8614.161360
18436.140507,-4670.789715,6680.760699,-12327.822035
18436.143073,497.707101,-2297.109696,-9571.290400
18436.145638,-1378.265818,-6125.625856,-7733.602643
18436.148204,1875.972918,7657.032320,-12882.956878
18436.150769,-2335.394858,2622.533570,-11160.124606
18436.153335,-2450.250342,-5781.059402,-7867.600709
18436.155900,1014.556782,3215.953574,-10815.558152
18436.158466,803.988394,1875.972918,-10528.419440
18436.161031,-1244.267752,-2967.100024,-8786.444587
18436.163597,-421.136778,516.849682,-10164.710405
18436.166162,-957.129040,1703.689691,-10738.987829
18436.168728,-957.129040,-1761.117434,-9360.722011
18436.171293,-421.136778,-1320.838075,-9265.009107
18436.173859,-899.701298,1703.689691,-10528.419440
18436.176424,-650.847747,57.427742,-9954.142016
18436.178990,-861.416136,-2143.969050,-8977.870395
18436.181555,-765.703232,-669.990328,-9686.145885
18436.184121,-535.992262,2029.113565,-10911.271056
18436.186686,-823.130974,-3330.809059,-8977.870395
18436.189252,-1799.402595,1014.556782,-10183.852986
18436.191817,-478.564520,2373.680019,-10853.843314
18436.194383,-2124.826469,-899.701298,-9686.145885
18436.196948,401.994197,-1473.978722,-9360.722011
18436.199514,-3828.516160,4058.227130,-11198.409768
18436.202079,3101.098090,229.710970,-10107.282662
18436.204645,-708.275490,-5627.918755,-7867.600709
18436.207210,976.271621,9360.722011,-13208.380752
18436.209776,-1359.123237,-995.414202,-9360.722011
18436.212341,-3081.955509,-6642.475538,-7121.040058
18436.214907,2201.396792,3503.092286,-11026.126541
18436.217472,210.568389,1990.828403,-10758.130410
18436.220038,-38.285162,-4555.934230,-8327.022648
18436.222603,669.990328,2067.398726,-10509.276859
18436.225169,19.142581,2392.822600,-10834.700733
18436.227734,-1052.841944,-382.851616,-9667.003304
18436.230300,57.427742,516.849682,-9820.143950
18436.232866,-593.420005,1895.115499,-10624.132344
18436.235431,1033.699363,306.281293,-9762.716208
18436.237997,1244.267752,-1263.410333,-9207.581365
18436.240562,-421.136778,2526.820666,-10681.560086
18436.243128,-516.849682,995.414202,-10241.280728
18436.245693,57.427742,-1071.984525,-9399.007173
18436.248259,-880.558717,57.427742,-9667.003304
18436.250824,2431.107762,2909.672282,-10892.128475
18436.253389,-2450.250342,-344.566454,-9973.284597
18436.255954,2565.105827,38.285162,-9724.431046
18436.258519,-2507.678085,-267.996131,-9686.145885
18436.261084,-2584.248408,4823.930362,-11619.546546
18436.263649,344.566454,-5838.487144,-7714.460062
18436.266214,-880.558717,-1129.412267,-9571.290400
18436.268779,1225.125171,5819.344563,-12346.964616
18436.271344,-2354.537438,-7331.608446,-7312.465866
18436.273909,267.996131,1703.689691,-10566.704602
18436.276474,976.271621,5034.498750,-11523.833642
18436.279039,-57.427742,-1148.554848,-9341.579430
18436.281604,-1550.549045,-1895.115499,-9054.440718
18436.284169,-76.570323,2603.390989,-11083.554283
18436.286734,-727.418070,-574.277424,-9915.856854
18436.289300,-1225.125171,-2699.103893,-8843.872330
18436.291865,-1818.545176,2297.109696,-10834.700733
18436.294430,-1741.974853,1167.697429,-10509.276859
18436.296995,-861.416136,-2411.965181,-9092.725880
18436.299560,-344.566454,1091.127106,-10202.995566
18436.302125,-535.992262,1186.840010,-10336.993632
18436.304690,-1416.550979,-1703.689691,-9494.720077
18436.307255,-1320.838075,-1186.840010,-9877.571693
18436.309820,-1244.267752,1129.412267,-10145.567824
18436.312385,76.570323,1416.550979,-10432.706536
18436.314950,-3235.096155,-1684.547110,-9322.436850
18436.317515,2986.242605,-229.710970,-9533.005238
18436.320080,-2124.826469,-57.427742,-9820.143950
18436.322645,957.129040,4230.510357,-11504.691061
18436.325210,1607.976787,-4651.647134,-8365.307810
18436.327775,-478.564520,3483.949706,-10777.272990
18436.330340,-172.283227,5723.631659,-11619.546546
18436.332906,-2545.963246,-5895.914886,-7446.463931
18436.335471,1722.832272,4153.940034,-11198.409768
18436.338036,267.996131,1033.699363,-10470.991698
18436.340601,382.851616,-3579.662610,-8614.161360
18436.343166,-516.849682,-229.710970,-9667.003304
18436.345731,-57.427742,3675.375514,-11102.696864
18436.348296,-95.712904,-153.140646,-9609.575562
18436.350861,861.416136,-1320.838075,-9131.011042
18436.353426,153.140646,1799.402595,-10566.704602
18436.355991,1282.552914,1091.127106,-10068.997501
18436.358555,153.140646,-1148.554848,-9207.581365
18436.361120,-38.285162,1875.972918,-10624.132344
18436.363685,-612.562586,650.847747,-10202.995566
18436.366250,497.707101,-382.851616,-9475.577496
18436.368814,306.281293,248.853550,-9801.001370
18436.371379,3062.812928,918.843878,-10049.854920
18436.373944,1473.978722,-1799.402595,-9169.296203
18436.376509,-2335.394858,2469.392923,-10547.562021
18436.379074,3215.953574,669.990328,-9839.286531
18436.381638,-4096.512291,-4096.512291,-8518.448456
18436.384203,-1339.980656,6489.334891,-12385.249778
18436.386768,-2297.109696,-5915.057467,-8250.452325
18436.389333,1761.117434,-2718.246474,-8901.300072
18436.391897,535.992262,5513.063270,-12117.253646
18436.394462,-3005.385186,-3235.096155,-8843.872330
18436.397027,-880.558717,344.566454,-9686.145885
18436.399592,1014.556782,3369.094221,-10872.985894
18436.402157,-976.271621,-2086.541307,-9207.581365
18436.404721,-401.994197,-3215.953574,-8843.872330
18436.407286,-38.285162,287.138712,-9973.284597
18436.409851,-1205.982590,1569.691626,-10490.134278
18436.412416,-1588.834206,-1071.984525,-9533.005238
18436.414981,-1493.121302,-287.138712,-9992.427178
18436.417545,-172.283227,1301.695494,-10375.278794
18436.420110,153.140646,-1225.125171,-9322.436850
18436.422675,-1225.125171,-440.279358,-9781.858789
18436.425240,-1167.697429,-95.712904,-10260.423309
18436.427804,-1646.261949,880.558717,-10241.280728
18436.430369,-478.564520,-1014.556782,-9647.860723
18436.432934,-612.562586,995.414202,-10183.852986
18436.435499,-1129.412267,-708.275490,-9839.286531
18436.438064,-3885.943902,995.414202,-10107.282662
18436.440628,2679.961312,3579.662610,-11236.694930
18436.443193,555.134843,-5608.776174,-7925.028451
18436.445758,555.134843,6183.053598,-11830.114934
18436.448323,-1014.556782,3139.383251,-10815.558152
18436.450887,-1435.693560,-5417.350366,-7465.606512
18436.453452,1722.832272,5685.346498,-11734.402030
18436.456016,-784.845813,-880.558717,-9743.573627
18436.458581,-497.707101,-3885.943902,-8556.733618
18436.461145,1397.408398,3905.086483,-11179.267187
18436.463709,746.560651,-76.570323,-9954.142016
18436.466273,-19.142581,-1531.406464,-9073.583299
18436.468837,459.421939,-38.285162,-9609.575562
18436.471402,574.277424,1627.119368,-10547.562021
18436.473966,1952.543242,133.998066,-9628.718142
18436.476530,-861.416136,-191.425808,-9533.005238
18436.479094,-516.849682,2488.535504,-10834.700733
18436.481658,-153.140646,-842.273555,-9571.290400
18436.484223,191.425808,344.566454,-9743.573627
18436.486787,842.273555,918.843878,-10107.282662
18436.489351,2411.965181,-153.140646,-9533.005238
18436.491915,1512.263883,-1837.687757,-9092.725880
18436.494479,-1531.406464,3522.234867,-10892.128475
18436.497044,2794.816797,-1205.982590,-9265.009107
18436.499608,-4479.363907,-2871.387120,-8863.014910
18436.502172,-1550.549045,4575.076811,-11600.403965
18436.504736,-880.558717,57.427742,-10624.132344
18436.507301,38.285162,-7006.184573,-7484.749093
18436.509865,1454.836141,5570.491013,-11944.970419
18436.512429,-3101.098090,708.275490,-10222.138147
18436.514993,-2297.109696,-2507.678085,-8748.159426
18436.517557,287.138712,3292.523898,-10892.128475
18436.520122,535.992262,-38.285162,-10049.854920
18436.522686,-1129.412267,-3254.238736,-8863.014910
18436.525250,95.712904,344.566454,-10107.282662
18436.527814,-669.990328,1244.267752,-10432.706536
18436.530378,-1473.978722,-918.843878,-9552.147819
18436.532943,-1014.556782,-535.992262,-9513.862658
18436.535507,-0.000000,880.558717,-10260.423309
18436.538071,248.853550,306.281293,-9801.001370
18436.540635,-2833.101958,-1110.269686,-9609.575562
18436.543199,918.843878,-191.425808,-9934.999435
18436.545764,-880.558717,-1282.552914,-9456.434915
18436.548328,1454.836141,95.712904,-9973.284597
18436.550892,-3713.660675,459.421939,-10030.712339
18436.553456,2660.818731,-191.425808,-9858.429112
18436.556020,784.845813,-2660.818731,-8709.874264
18436.558584,248.853550,5551.348432,-11849.257515
18436.561147,2450.250342,-2660.818731,-8997.012976
18436.563710,-401.994197,-2105.683888,-8633.303941
18436.566274,3637.090352,6221.338760,-11753.544611
18436.568837,-497.707101,1627.119368,-10547.562021
18436.571401,-669.990328,-4115.654872,-8422.735552
18436.573964,957.129040,3330.809059,-11121.839445
18436.576527,1167.697429,-650.847747,-9762.716208
18436.579091,-516.849682,-2641.676150,-8824.729749
18436.581654,593.420005,3292.523898,-10834.700733
18436.584217,631.705166,842.273555,-10068.997501
18436.586781,306.281293,-1454.836141,-9284.151688
18436.589344,669.990328,1971.685822,-10451.849117
18436.591907,765.703232,1282.552914,-10068.997501
18436.594471,325.423874,-1837.687757,-8977.870395
18436.597034,440.279358,1071.984525,-9341.579430
18436.599597,861.416136,2316.252277,-10528.419440
18436.602161,344.566454,-1071.984525,-9456.434915
18436.604724,3330.809059,-248.853550,-9379.864592
18436.607287,-516.849682,803.988394,-9992.427178
18436.609851,-344.566454,3388.236802,-11006.983960
18436.612414,1378.265818,-3866.801322,-8595.018779
18436.614977,-5379.065205,2679.961312,-10815.558152
18436.617541,-459.421939,4785.645200,-11964.113000
18436.620104,-3158.525832,-9839.286531,-6680.760699
18436.622668,2124.826469,3617.947771,-11504.691061
18436.625231,-1665.404530,2143.969050,-10872.985894
18436.627794,-1359.123237,-5934.200048,-7714.460062
18436.630358,-957.129040,-1033.699363,-9322.436850
18436.632921,976.271621,4287.938099,-11217.552349
18436.635484,-1129.412267,-1761.117434,-9284.151688
18436.638048,-1339.980656,-1856.830338,-9379.864592
18436.640611,-937.986459,2469.392923,-11179.267187
18436.643174,-976.271621,344.566454,-10164.710405
18436.645738,-1416.550979,-2565.105827,-9073.583299
18436.648301,-1646.261949,1722.832272,-10681.560086
18436.650864,-57.427742,172.283227,-10030.712339
18436.653428,555.134843,-2756.531635,-8729.016845
18436.655991,-1703.689691,1378.265818,-10356.136213
18436.658554,1071.984525,248.853550,-10145.567824
18436.661094,-1416.550979,-2909.672282,-9092.725880
18436.663634,1148.554848,-976.271621,-9513.862658
18436.666174,-3120.240670,2143.969050,-10738.987829
18436.668714,1665.404530,-172.283227,-9839.286531
18436.671254,2622.533570,-5091.926493,-7733.602643
18436.673794,-516.849682,6527.620053,-12078.968485
18436.676334,2986.242605,-421.136778,-9628.718142
18436.678874,535.992262,-6527.620053,-6833.901346
18436.681414,2775.674216,9647.860723,-13016.954944
18436.683954,-2086.541307,-1646.261949,-9226.723946
18436.686493,784.845813,-3732.803256,-8518.448456
18436.689033,2239.681954,4689.932296,-11619.546546
18436.691573,708.275490,-2737.389054,-9016.155557
18436.694113,401.994197,-4670.789715,-8001.598774
18436.696653,248.853550,2105.683888,-10222.138147
18436.699193,880.558717,3464.807125,-11006.983960
18436.701733,918.843878,-2239.681954,-9016.155557
18436.704273,1301.695494,689.132909,-9973.284597
18436.706813,-248.853550,2469.392923,-10547.562021
18436.709353,-976.271621,-1014.556782,-9322.436850
18436.711893,995.414202,-478.564520,-9667.003304
18436.714433,133.998066,2220.539373,-10585.847182
18436.716972,1205.982590,-650.847747,-9647.860723
18436.719512,1933.400661,-172.283227,-9399.007173
18436.722052,1646.261949,38.285162,-9590.432981
18436.724592,-3120.240670,2431.107762,-10624.132344
18436.727132,2297.109696,1397.408398,-10260.423309
18436.729672,-1129.412267,-7599.604578,-7063.612315
18436.732212,-1895.115499,5455.635528,-12002.398162
18436.734752,-1416.550979,-823.130974,-10279.565890
18436.737292,191.425808,-7637.889739,-7274.180704
18436.739832,1416.550979,6987.041992,-12366.107197
18436.742372,-2431.107762,172.283227,-9915.856854
18436.744912,-2565.105827,-3005.385186,-8556.733618
18436.747451,1071.984525,4345.365842,-11236.694930
18436.749991,-95.712904,-976.271621,-9667.003304
18436.752531,-1359.123237,-2852.244539,-8997.012976
18436.755071,-440.279358,1607.976787,-10662.417506
18436.757611,-1627.119368,2488.535504,-10796.415571
18436.760151,-1301.695494,-1339.980656,-9418.149754
18436.762694,-689.132909,-1378.265818,-9628.718142
18436.765237,-593.420005,2220.539373,-10758.130410
18436.767780,-918.843878,-631.705166,-9552.147819
18436.770323,19.142581,-2603.390989,-9035.298138
18436.772866,-2239.681954,2392.822600,-10719.845248
18436.775409,-1588.834206,535.992262,-10336.993632
18436.777952,-1531.406464,-1588.834206,-9437.292334
18436.780495,593.420005,-306.281293,-9858.429112
18436.783038,-3043.670347,2967.100024,-10834.700733
18436.785581,3235.096155,-574.277424,-9513.862658
18436.788124,1856.830338,-3560.520029,-7771.887805
18436.790667,-114.855485,4383.651003,-11006.983960
18436.793210,-555.134843,5838.487144,-11772.687192
18436.795753,-2737.389054,-6412.764568,-7312.465866
18436.798296,2201.396792,3522.234867,-11160.124606
18436.800839,631.705166,1607.976787,-10604.989763
18436.803382,-1091.127106,-4785.645200,-8346.165229
18436.805925,-306.281293,3751.945837,-11102.696864
18436.808468,2009.970984,861.416136,-10202.995566
18436.811011,-95.712904,-2947.957443,-8575.876198
18436.813554,-38.285162,3598.805190,-11006.983960
18436.816097,1856.830338,995.414202,-10202.995566
18436.818640,114.855485,-2718.246474,-8690.731683
18436.821183,133.998066,727.418070,-9934.999435
18436.823727,382.851616,2737.389054,-10777.272990
18436.826270,-937.986459,-1225.125171,-9533.005238
18436.828813,1684.547110,-593.420005,-9609.575562
18436.831356,2086.541307,2182.254211,-10145.567824
18436.833899,1091.127106,-1780.260014,-9016.155557
18436.836442,-1569.691626,2699.103893,-10585.847182
18436.838985,3235.096155,593.420005,-9839.286531
18436.841528,-4173.082614,-4000.799387,-8748.159426
18436.844073,-1722.832272,5647.061336,-12155.538808
18436.846618,-2411.965181,-5359.922624,-8422.735552
18436.849164,1378.265818,-2660.818731,-9131.011042
18436.851709,1205.982590,5072.783912,-11255.837510
18436.854254,-2679.961312,1837.687757,-10700.702667
18436.856800,-2545.963246,-2048.256146,-8939.585234
18436.859345,248.853550,2392.822600,-10566.704602
18436.861890,689.132909,440.279358,-10126.425243
18436.864436,-593.420005,-2967.100024,-8958.727814
18436.866981,-497.707101,-555.134843,-9762.716208
18436.869526,-861.416136,1875.972918,-10624.132344
18436.872072,-1473.978722,-1359.123237,-9533.005238
18436.874617,-1148.554848,-440.279358,-9934.999435
18436.877162,-95.712904,1531.406464,-10604.989763
18436.879708,-1512.263883,-803.988394,-9533.005238
18436.882253,478.564520,-1627.119368,-9322.436850
18436.884798,-765.703232,-1627.119368,-9265.009107
18436.887344,382.851616,1569.691626,-10566.704602
18436.889889,-3369.094221,-133.998066,-10011.569758
18436.892435,2660.818731,-2009.970984,-9092.725880
18436.894980,-229.710970,-421.136778,-9590.432981
18436.897525,727.418070,5589.633594,-11887.542677
18436.900071,1818.545176,-5072.783912,-8020.741355
18436.902616,-153.140646,2163.111630,-10164.710405
18436.905161,172.283227,7465.606512,-12289.536874
18436.907707,-2737.389054,-6355.336826,-7312.465866
18436.910252,2048.256146,1703.689691,-10470.991698
18436.912797,1244.267752,2909.672282,-11102.696864
18436.915343,-1263.410333,-4307.080680,-9245.866526
18436.917888,-2431.107762,-1091.127106,-9284.151688
18436.920433,995.414202,3885.943902,-11045.269122
18436.922979,1225.125171,-631.705166,-9475.577496
18436.925524,1205.982590,-842.273555,-9418.149754
18436.928069,-172.283227,3177.668413,-10872.985894
18436.930615,-267.996131,153.140646,-9743.573627
18436.933160,306.281293,-1282.552914,-9073.583299
18436.935705,1512.263883,1148.554848,-10241.280728
18436.938251,-1416.550979,842.273555,-10336.993632
18436.940796,1416.550979,-306.281293,-9839.286531
18436.943341,-842.273555,2163.111630,-10183.852986
18436.945867,3349.951640,535.992262,-9781.858789
18436.948392,-1339.980656,-2909.672282,-8882.157491
18436.950918,-4211.367776,4383.651003,-11542.976222
18436.953443,459.421939,-1110.269686,-9743.573627
18436.955969,-2373.680019,-5838.487144,-8097.311678
18436.958494,1014.556782,5876.772306,-12289.536874
18436.961020,-2163.111630,-3828.516160,-8614.161360
18436.963545,-267.996131,-2488.535504,-8939.585234
18436.966071,-153.140646,4881.358104,-11619.546546
18436.968596,-2124.826469,-765.703232,-9475.577496
18436.971122,-1320.838075,-555.134843,-9494.720077
18436.973647,478.564520,1818.545176,-10815.558152
18436.976173,497.707101,-1684.547110,-9628.718142
18436.978699,-2067.398726,-2526.820666,-8958.727814
18436.981224,-2641.676150,1014.556782,-10183.852986
18436.983750,-765.703232,2105.683888,-10949.556218
18436.986275,95.712904,-3522.234867,-8786.444587
18436.988801,-57.427742,593.420005,-9973.284597
18436.991326,-440.279358,114.855485,-10145.567824
18436.993852,-1933.400661,-689.132909,-9686.145885
18436.996377,-880.558717,191.425808,-10088.140082
18436.998903,-1071.984525,1033.699363,-10432.706536
18437.001428,-1014.556782,-1550.549045,-9533.005238
18437.003954,-2986.242605,2890.529701,-10815.558152
18437.006479,3981.656806,-95.712904,-9705.288466
18437.009005,-1397.408398,-3694.518094,-8461.020714
18437.011530,612.562586,5398.207786,-11370.692995
18437.014056,-1129.412267,4345.365842,-11121.839445
18437.016581,-2277.967115,-5206.781978,-7580.461997
18437.019107,2048.256146,4077.369710,-11236.694930
18437.021632,-344.566454,401.994197,-10164.710405
18437.024158,-1301.695494,-2737.389054,-9035.298138
18437.026683,784.845813,2220.539373,-10719.845248
18437.029209,1339.980656,344.566454,-9858.429112
18437.031734,287.138712,-1416.550979,-9073.583299
18437.034260,-95.712904,2392.822600,-10681.560086
18437.036785,1110.269686,1282.552914,-10183.852986
18437.039311,861.416136,-1320.838075,-9131.011042
18437.041836,842.273555,1052.841944,-10011.569758
18437.044362,1282.552914,1205.982590,-10241.280728
18437.046892,-1339.980656,-57.427742,-10011.569758
18437.049423,1435.693560,746.560651,-10088.140082
18437.051954,-1493.121302,1837.687757,-10260.423309
18437.054484,2986.242605,1148.554848,-9954.142016
18437.057015,-2009.970984,-2182.254211,-9131.011042
18437.059546,-2201.396792,5398.207786,-11849.257515
18437.062076,459.421939,-5130.211654,-8039.883936
18437.064607,-1607.976787,-2373.680019,-9169.296203
18437.067138,421.136778,5283.352301,-12212.966550
18437.069669,-1646.261949,-6585.047795,-7676.174901
18437.072199,287.138712,650.847747,-10088.140082
18437.074730,306.281293,4651.647134,-11389.835576
18437.077261,-1320.838075,555.134843,-10126.425243
18437.079791,-1914.258080,-1435.693560,-9207.581365
18437.082322,861.416136,1110.269686,-10509.276859
18437.084853,-306.281293,-803.988394,-9973.284597
18437.087383,-1569.691626,-1473.978722,-9303.294269
18437.089914,-1971.685822,976.271621,-10241.280728
18437.092445,-899.701298,516.849682,-10260.423309
18437.094975,-133.998066,-1588.834206,-9590.432981
18437.097506,-880.558717,95.712904,-9896.714274
18437.100037,1014.556782,-803.988394,-9533.005238
18437.102567,-1282.552914,-287.138712,-9705.288466
18437.105098,-1148.554848,382.851616,-10298.708470
18437.107629,-3388.236802,918.843878,-10279.565890
18437.110159,2641.676150,-1588.834206,-9284.151688
18437.112690,-1473.978722,-880.558717,-9437.292334
18437.115221,1952.543242,5379.065205,-11906.685258
18437.117751,1875.972918,-5455.635528,-7848.458128
18437.120282,191.425808,3177.668413,-10509.276859
18437.122813,-650.847747,7101.897477,-12232.109131
18437.125343,-3177.668413,-6317.051664,-7465.606512
18437.127874,2507.678085,2852.244539,-10815.558152
18437.130405,1071.984525,1703.689691,-10681.560086
18437.132935,-1607.976787,-3101.098090,-8863.014910
18437.135466,-153.140646,1895.115499,-10624.132344
18437.137997,-325.423874,1244.267752,-10777.272990
18437.140527,1875.972918,344.566454,-9896.714274
18437.143058,-248.853550,-1186.840010,-9265.009107
18437.145589,153.140646,2833.101958,-10719.845248
18437.148124,-19.142581,363.709035,-9686.145885
18437.150659,823.130974,-1071.984525,-9188.438784
18437.153193,669.990328,1952.543242,-10528.419440
18437.155728,-114.855485,-746.560651,-9743.573627
18437.158263,2775.674216,-38.285162,-9628.718142
18437.160798,57.427742,172.283227,-9647.860723
18437.163333,-267.996131,3426.521963,-10853.843314
18437.165868,1895.115499,-3407.379382,-8843.872330
18437.168403,-5551.348432,1971.685822,-10624.132344
18437.170938,-1493.121302,7063.612315,-12710.673651
18437.173473,-3005.385186,-5225.924558,-8575.876198
18437.176008,1339.980656,-4134.797453,-8575.876198
18437.178543,823.130974,6565.905214,-12385.249778
18437.181078,-2163.111630,-3464.807125,-8671.589102
18437.183613,-612.562586,-1110.269686,-9169.296203
18437.186148,765.703232,4115.654872,-11236.694930
18437.188683,-1378.265818,-1397.408398,-9418.149754
18437.191218,-727.418070,-2679.961312,-9035.298138
18437.193752,-229.710970,2431.107762,-10968.698798
18437.196287,401.994197,-57.427742,-9801.001370
18437.198822,-2067.398726,-3101.098090,-8690.731683
18437.201357,-1493.121302,2603.390989,-9686.145885
18437.203892,-1320.838075,2718.246474,-11083.554283
18437.206427,574.277424,-3388.236802,-8748.159426
18437.208962,-727.418070,-229.710970,-9686.145885
18437.211497,-1167.697429,2622.533570,-10892.128475
18437.214032,-2297.109696,-803.988394,-9762.716208
18437.216567,-1339.980656,-2239.681954,-9226.723946
18437.219102,-2622.533570,5627.918755,-11676.974288
18437.221637,4115.654872,-2163.111630,-9150.153622
18437.224172,-1071.984525,-4383.651003,-8250.452325
18437.226707,3081.955509,9820.143950,-13227.523333
18437.229242,-1301.695494,-3905.086483,-8059.026517
18437.231776,1129.412267,-784.845813,-9092.725880
18437.234311,1971.685822,4957.928427,-11696.116869
18437.236846,-401.994197,1014.556782,-10394.421374
18437.239381,-344.566454,-3081.955509,-8824.729749
18437.241916,669.990328,1071.984525,-10202.995566
18437.244451,1167.697429,1646.261949,-10394.421374
18437.246986,-114.855485,-1665.404530,-8997.012976
18437.249524,-689.132909,1282.552914,-10336.993632
18437.252063,1550.549045,2660.818731,-10777.272990
18437.254601,1129.412267,-2239.681954,-8614.161360
18437.257140,382.851616,1091.127106,-9915.856854
18437.259678,708.275490,2143.969050,-10509.276859
18437.262217,-38.285162,-2718.246474,-9169.296203
18437.264755,3292.523898,727.418070,-9284.151688
18437.267293,1282.552914,-57.427742,-9418.149754
18437.269832,-1225.125171,3579.662610,-10911.271056
18437.272370,2852.244539,-2967.100024,-8843.872330
18437.274909,-4938.785846,-555.134843,-9647.860723
18437.277447,-995.414202,6585.047795,-12538.390424
18437.279985,-3254.238736,-8958.727814,-7025.327154
18437.282524,1531.406464,440.279358,-10222.138147
18437.285062,248.853550,4728.217458,-11753.544611
18437.287601,-1684.547110,-6451.049730,-7542.176835
18437.290139,229.710970,1914.258080,-10375.278794
18437.292677,-133.998066,3732.803256,-11236.694930
18437.295216,-2009.970984,-2699.103893,-8901.300072
18437.297754,-689.132909,-3579.662610,-8690.731683
18437.300293,-421.136778,1684.547110,-10662.417506
18437.302831,-344.566454,1684.547110,-10509.276859
18437.305369,-1512.263883,-3158.525832,-8786.444587
18437.307908,-1263.410333,765.703232,-10432.706536
18437.310446,-1761.117434,1263.410333,-10662.417506
18437.312985,1014.556782,-3503.092286,-8614.161360
18437.315523,-459.421939,76.570323,-9762.716208
18437.318062,-1244.267752,2584.248408,-10987.841379
18437.320600,-3005.385186,-880.558717,-9762.716208
18437.323138,-38.285162,-2163.111630,-9207.581365
18437.325677,-3196.810994,4709.074877,-11466.405899
18437.328215,3426.521963,-306.281293,-12155.538808
18437.330754,1627.119368,-6833.901346,-7389.036189
18437.333292,229.710970,4345.365842,-10777.272990
18437.335830,-823.130974,7044.469734,-12270.394293
18437.338369,-3235.096155,-7025.327154,-7121.040058
18437.340907,2124.826469,3311.666478,-11006.983960
18437.343446,555.134843,2488.535504,-10911.271056
18437.345984,-535.992262,-3388.236802,-8729.016845
18437.348522,95.712904,899.701298,-10030.712339
18437.351043,2392.822600,1071.984525,-10049.854920
18437.353564,-248.853550,-1971.685822,-8901.300072
18437.356084,-727.418070,1378.265818,-10451.849117
18437.358605,957.129040,2316.252277,-10643.274925
18437.361125,325.423874,497.707101,-9705.288466
18437.363646,2124.826469,-1263.410333,-9016.155557
18437.366167,-899.701298,2067.398726,-10700.702667
18437.368687,-287.138712,1397.408398,-10566.704602
18437.371208,-784.845813,172.283227,-9801.001370
18437.373728,3656.232933,76.570323,-9590.432981
18437.376249,-2392.822600,669.990328,-10126.425243
18437.378770,1014.556782,1990.828403,-10432.706536
18437.381290,-708.275490,-6336.194245,-7618.747158
18437.383811,-2124.826469,3943.371645,-11542.976222
18437.386331,-995.414202,172.283227,-10585.847182
18437.388852,-57.427742,-7178.467800,-7389.036189
18437.391372,-555.134843,210.568389,-9858.429112
18437.393893,-957.129040,5168.496816,-11868.400096
18437.396414,-3273.381317,-3196.810994,-8709.874264
18437.398934,-421.136778,784.845813,-9934.999435
18437.401455,1416.550979,1856.830338,-10758.130410
18437.403975,-57.427742,-2737.389054,-9188.438784
18437.406496,-1320.838075,-708.275490,-9437.292334
18437.409017,-1569.691626,2392.822600,-10662.417506
18437.411537,-1378.265818,-669.990328,-9705.288466
18437.414058,-1186.840010,-1780.260014,-9437.292334
18437.416578,-995.414202,784.845813,-10509.276859
18437.419099,-0.000000,593.420005,-10164.710405
18437.421620,-325.423874,-2086.541307,-9265.009107
18437.424140,-1110.269686,-210.568389,-9820.143950
18437.426661,-2335.394858,0.000000,-10049.854920
18437.429181,-2105.683888,3694.518094,-11160.124606
18437.431702,4383.651003,-3656.232933,-8575.876198
18437.434223,-784.845813,-1167.697429,-9341.579430
18437.436743,3732.803256,7159.325219,-12174.681389
18437.439264,-478.564520,-6144.768437,-7025.327154
18437.441784,1397.408398,3005.385186,-10528.419440
18437.444305,191.425808,5513.063270,-11906.685258
18437.446825,-880.558717,-4957.928427,-8001.598774
18437.449346,2584.248408,191.425808,-9705.288466
18437.451873,1244.267752,1646.261949,-10509.276859
18437.454399,-229.710970,976.271621,-10241.280728
18437.456926,-459.421939,-1033.699363,-9322.436850
18437.459453,287.138712,-287.138712,-9724.431046
18437.461979,1378.265818,3081.955509,-10930.413637
18437.464506,937.986459,-803.988394,-9226.723946
18437.467032,1071.984525,-363.709035,-9379.864592
18437.469559,-401.994197,3005.385186,-10796.415571
18437.472086,287.138712,-19.142581,-9954.142016
18437.474612,918.843878,-267.996131,-9533.005238
18437.477139,2967.100024,-382.851616,-9456.434915
18437.479666,-1971.685822,2105.683888,-10528.419440
18437.482192,3120.240670,-995.414202,-9303.294269
18437.484719,-3503.092286,-4115.654872,-8461.020714
18437.487246,-2220.539373,2584.248408,-10872.985894
18437.489772,-440.279358,2488.535504,-11408.978157
18437.492299,-593.420005,-8039.883936,-7216.752962
18437.494825,937.986459,4785.645200,-11485.548480
18437.497352,-1914.258080,2507.678085,-10892.128475
18437.499879,-3522.234867,-4192.225195,-8097.311678
18437.502405,516.849682,2947.957443,-10853.843314
18437.504932,746.560651,535.992262,-10183.852986
18437.507459,-497.707101,-3598.805190,-8690.731683
18437.509985,-937.986459,842.273555,-10126.425243
18437.512512,-957.129040,2220.539373,-10662.417506
18437.515038,-1186.840010,-2258.824534,-9245.866526
18437.517565,-1167.697429,-784.845813,-9092.725880
18437.520092,306.281293,325.423874,-10164.710405
18437.522618,-669.990328,1052.841944,-10279.565890
18437.525145,-823.130974,-1473.978722,-9590.432981
18437.527672,-1052.841944,918.843878,-10241.280728
18437.530198,-2354.537438,-153.140646,-9954.142016
18437.532725,-2794.816797,2622.533570,-10681.560086
18437.535252,4364.508422,-1895.115499,-9169.296203
18437.537778,-535.992262,-2143.969050,-9073.583299
18437.540305,3503.092286,7159.325219,-12078.968485
18437.542831,-497.707101,-4651.647134,-7599.604578
18437.545358,593.420005,1646.261949,-10183.852986
18437.547885,459.421939,5666.203917,-11964.113000
18437.550411,-133.998066,-803.988394,-9647.860723
18437.552943,650.847747,-3005.385186,-8614.161360
18437.555474,1837.687757,2086.541307,-10432.706536
18437.558006,-401.994197,727.418070,-10241.280728
18437.560538,-1167.697429,-191.425808,-9705.288466
18437.563069,401.994197,-363.709035,-9647.860723
18437.565601,1493.121302,1952.543242,-10547.562021
18437.568132,1148.554848,95.712904,-9609.575562
18437.570664,1071.984525,76.570323,-9494.720077
18437.573195,-650.847747,1684.547110,-10432.706536
18437.575727,363.709035,842.273555,-10241.280728
18437.578259,-1722.832272,1014.556782,-10145.567824
18437.580790,3273.381317,210.568389,-10317.851051
18437.583322,76.570323,-2584.248408,-9073.583299
18437.585853,-4058.227130,4498.506488,-11523.833642
18437.588385,-727.418070,-1225.125171,-9552.147819
18437.590916,-3235.096155,-4804.787781,-8422.735552
18437.593448,1033.699363,5857.629725,-12404.392358
18437.595980,-1014.556782,-4326.223261,-8403.592971
18437.598511,-861.416136,-2450.250342,-8901.300072
18437.601043,-555.134843,5627.918755,-11887.542677
18437.603574,-3196.810994,-1990.828403,-9073.583299
18437.606106,-1167.697429,-516.849682,-9628.718142
18437.608637,1205.982590,1646.261949,-10643.274925
18437.611169,937.986459,-1952.543242,-9245.866526
18437.613700,-172.283227,-2163.111630,-8920.442653
18437.616232,-1971.685822,-497.707101,-9609.575562
18437.618764,-2565.105827,2526.820666,-11026.126541
18437.621295,-2143.969050,-1818.545176,-9552.147819
18437.623827,1167.697429,-784.845813,-9609.575562
18437.626358,306.281293,38.285162,-9992.427178
18437.628890,-76.570323,-1014.556782,-9724.431046
18437.631421,-4039.084549,248.853550,-9896.714274
18437.633953,1856.830338,708.275490,-9896.714274
18437.636485,191.425808,-2565.105827,-9035.298138
18437.639016,1378.265818,5149.354235,-11810.972354
18437.641548,3311.666478,-3751.945837,-8537.591037
18437.644079,-248.853550,421.136778,-7082.754896
18437.646611,1952.543242,7350.751027,-12193.823970
18437.649142,-861.416136,-19.142581,-10049.854920
18437.651674,612.562586,-3809.373579,-8461.020714
18437.654188,3349.951640,3005.385186,-10815.558152
18437.656703,-267.996131,-497.707101,-9762.716208
18437.659219,-937.986459,-727.418070,-9379.864592
18437.661735,114.855485,727.418070,-10011.569758
18437.664250,708.275490,1741.974853,-10643.274925
18437.666766,727.418070,-535.992262,-9667.003304
18437.669281,593.420005,-248.853550,-9628.718142
18437.671797,1799.402595,2373.680019,-10336.993632
18437.674312,-650.847747,210.568389,-9743.573627
18437.676828,-19.142581,421.136778,-10164.710405
18437.679343,-1263.410333,2029.113565,-10490.134278
18437.681859,3215.953574,-574.277424,-9571.290400
18437.684375,-1856.830338,-842.273555,-9552.147819
18437.686890,631.705166,3617.947771,-10987.841379
18437.689406,-1110.269686,-6355.336826,-7695.317482
18437.691921,-2277.967115,2316.252277,-10700.702667
18437.694437,-401.994197,1837.687757,-11236.694930
18437.696952,-535.992262,-7159.325219,-7599.604578
18437.699468,1186.840010,4823.930362,-11657.831707
18437.701983,-1741.974853,1435.693560,-10413.563955
18437.704499,-3158.525832,-3483.949706,-8441.878133
18437.707015,478.564520,2928.814862,-10719.845248
18437.709530,1435.693560,593.420005,-10336.993632
18437.712046,-823.130974,-516.849682,-9858.429112
18437.714561,-746.560651,-631.705166,-9418.149754
18437.717077,-1225.125171,-306.281293,-9915.856854
18437.719592,-1646.261949,1359.123237,-10547.562021
18437.722108,-3388.236802,-1129.412267,-9724.431046
18437.724623,516.849682,-57.427742,-9934.999435
18437.727139,1091.127106,-1397.408398,-9513.862658
18437.729655,803.988394,-995.414202,-9705.288466
18437.732170,-4039.084549,1148.554848,-10164.710405
18437.734686,1435.693560,-708.275490,-9360.722011
18437.737201,-1148.554848,-1205.982590,-9437.292334
18437.739717,535.992262,4019.941968,-11274.980091
18437.742232,4402.793584,-555.134843,-9533.005238
18437.744748,-440.279358,-4249.652938,-7427.321350
18437.747263,1665.404530,8461.020714,-12519.247843
18437.749779,-1837.687757,-2009.970984,-9169.296203
18437.752294,1263.410333,-2794.816797,-8901.300072
18437.754817,3139.383251,3407.379382,-11160.124606
18437.757340,-669.990328,-823.130974,-9533.005238
18437.759862,-631.705166,-803.988394,-9284.151688
18437.762385,-133.998066,976.271621,-10202.995566
18437.764907,325.423874,2373.680019,-10777.272990
18437.767430,459.421939,-1225.125171,-9475.577496
18437.769953,823.130974,-229.710970,-9590.432981
18437.772475,1799.402595,2660.818731,-10336.993632
18437.774998,133.998066,382.851616,-9915.856854
18437.777520,-0.000000,-191.425808,-9724.431046
18437.780043,-1990.828403,2986.242605,-10968.698798
18437.782566,2813.959378,382.851616,-9973.284597
18437.785088,-1359.123237,-3081.955509,-8614.161360
18437.787611,-1359.123237,5474.778109,-11676.974288
18437.790133,-478.564520,-4862.215523,-8250.452325
18437.792656,-2354.537438,-1493.121302,-9303.294269
18437.795179,650.847747,4919.643266,-12117.253646
18437.797701,-1339.980656,-6374.479406,-7867.600709
18437.800224,57.427742,1493.121302,-10241.280728
18437.802746,-210.568389,5091.926493,-11504.691061
18437.805269,-2794.816797,-306.281293,-9762.716208
18437.807792,-1588.834206,-995.414202,-9513.862658
18437.810314,1550.549045,-95.712904,-10068.997501
18437.812837,-382.851616,0.000000,-10126.425243
18437.815359,-1301.695494,19.142581,-9781.858789
18437.817882,-1646.261949,-765.703232,-9628.718142
18437.820404,-1512.263883,1052.841944,-10451.849117
18437.822927,-1186.840010,-1741.974853,-9494.720077
18437.825450,-1071.984525,363.709035,-10088.140082
18437.827972,133.998066,382.851616,-10107.282662
18437.830495,612.562586,-1607.976787,-9494.720077
18437.833017,-3943.371645,0.000000,-9839.286531
18437.835540,-3120.240670,4977.071008,-11255.837510
18437.838063,3847.658741,-1684.547110,-9322.436850
18437.840585,-957.129040,-3483.949706,-8729.016845
18437.843108,4747.360038,7542.176835,-12308.679454
18437.845630,-689.132909,-4307.080680,-7580.461997
18437.848153,918.843878,1071.984525,-9839.286531
18437.850676,-95.712904,6010.770371,-12117.253646
18437.853198,-995.414202,-4268.795518,-8537.591037
18437.855727,2603.390989,-612.562586,-9475.577496
18437.858255,1397.408398,1569.691626,-10394.421374
18437.860784,-708.275490,325.423874,-9934.999435
18437.863312,-153.140646,-1071.984525,-9188.438784
18437.865841,574.277424,-1416.550979,-9437.292334
18437.868369,1359.123237,2603.390989,-10719.845248
18437.870898,1665.404530,574.277424,-9781.858789
18437.873427,-287.138712,-612.562586,-9265.009107
18437.875955,191.425808,2392.822600,-10624.132344
18437.878484,1550.549045,574.277424,-9839.286531
18437.881012,363.709035,-3177.668413,-8786.444587
18437.883541,-363.709035,4287.938099,-11236.694930
18437.886069,3522.234867,-1416.550979,-9341.579430
18437.888598,-4575.076811,-3273.381317,-8633.303941
18437.891126,-2048.256146,7274.180704,-12634.103328
18437.893655,-4211.367776,-6087.340694,-8212.167163
18437.896184,-172.283227,-1856.830338,-7714.460062
18437.898712,1971.685822,5704.489078,-12002.398162
18437.901241,-1435.693560,-191.425808,-9896.714274
18437.903769,-2392.822600,-3062.812928,-8422.735552
18437.906298,133.998066,3062.812928,-10758.130410
18437.908826,-1837.687757,0.000000,-10068.997501
18437.911355,-842.273555,-1014.556782,-9743.573627
18437.913883,976.271621,-708.275490,-9686.145885
18437.916412,-497.707101,555.134843,-10202.995566
18437.918940,-2450.250342,76.570323,-10011.569758
18437.921469,-4173.082614,-1148.554848,-9839.286531
18437.923998,401.994197,2277.967115,-10719.845248
18437.926526,1148.554848,-2641.676150,-9054.440718
18437.929055,516.849682,-2756.531635,-9207.581365
18437.931583,-4039.084549,1033.699363,-10202.995566
18437.934112,-478.564520,3541.377448,-10853.843314
18437.936640,2928.814862,-5742.774240,-7791.030386
18437.939169,401.994197,3637.090352,-11217.552349
18437.941697,4536.791650,1875.972918,-10547.562021
18437.944226,-306.281293,-6259.623922,-6757.331022
18437.946754,1875.972918,8212.167163,-12136.396227
18437.949283,-1148.554848,401.994197,-10068.997501
18437.951812,612.562586,-4594.219392,-8365.307810
18437.954340,3215.953574,2641.676150,-10930.413637
18437.956874,-631.705166,612.562586,-10145.567824
18437.959407,-440.279358,-823.130974,-9973.284597
18437.961941,172.283227,-1588.834206,-9035.298138
18437.964474,842.273555,593.420005,-10126.425243
18437.967008,1014.556782,2890.529701,-10949.556218
18437.969541,1186.840010,-1454.836141,-9016.155557
18437.972075,133.998066,1225.125171,-9934.999435
18437.974608,516.849682,2565.105827,-10624.132344
18437.977142,1205.982590,-823.130974,-9456.434915
18437.979675,-401.994197,-1837.687757,-9169.296203
18437.982209,-57.427742,5072.783912,-11600.403965
18437.984742,2967.100024,-3943.371645,-8614.161360
18437.987276,-4862.215523,-976.271621,-9437.292334
18437.989809,-1339.980656,7408.178770,-12748.958813
18437.992343,-2890.529701,-1703.689691,-10011.569758
18437.994876,153.140646,-6431.907149,-7963.313613
18437.997410,2182.254211,6757.331022,-12442.677520
18437.999943,-995.414202,-2316.252277,-9131.011042
18438.002477,-1607.976787,-2469.392923,-8633.303941
18438.005010,-172.283227,3847.658741,-11006.983960
18438.007544,-2641.676150,-229.710970,-10068.997501
18438.010077,-555.134843,-1512.263883,-9533.005238
18438.012611,1110.269686,-133.998066,-9801.001370
18438.015144,-784.845813,899.701298,-10356.136213
18438.017678,-2622.533570,-612.562586,-9724.431046
18438.020211,-3445.664544,-1129.412267,-9896.714274
18438.022745,-287.138712,2947.957443,-10949.556218
18438.025278,287.138712,784.845813,-10470.991698
18438.027812,-95.712904,-2775.674216,-9245.866526
18438.030345,-3043.670347,287.138712,-9934.999435
18438.032879,-1837.687757,5111.069074,-11408.978157
18438.035412,3483.949706,-5436.492947,-7982.456194
18438.037946,-229.710970,535.992262,-9992.427178
18438.040479,4938.785846,5685.346498,-11715.259450
18438.043012,-287.138712,-7293.323285,-6527.620053
18438.045546,1665.404530,5436.492947,-11236.694930
18438.048079,-248.853550,4000.799387,-11294.122672
18438.050613,-344.566454,-5589.633594,-8020.741355
18438.053146,3196.810994,1052.841944,-10298.708470
18438.055680,2163.111630,1627.119368,-10317.851051
18438.058218,-1129.412267,1703.689691,-10413.563955
18438.060756,-612.562586,-1071.984525,-9150.153622
18438.063294,1071.984525,-1091.127106,-9456.434915
18438.065832,2258.824534,2947.957443,-10872.985894
18438.068370,1665.404530,-267.996131,-9341.579430
18438.070908,-593.420005,-555.134843,-9284.151688
18438.073446,363.709035,3311.666478,-10834.700733
18438.075984,-746.560651,1359.123237,-10222.138147
18438.078522,1952.543242,-3407.379382,-8786.444587
18438.081060,-1493.121302,2660.818731,-10834.700733
18438.083598,2679.961312,2277.967115,-10470.991698
18438.086136,-1875.972918,-8327.022648,-6910.471669
18438.088674,-2354.537438,-1895.115499,-9245.866526
18438.091212,248.853550,6470.192310,-12691.531070
18438.093751,-1205.982590,-7465.606512,-7523.034254
18438.096289,-803.988394,1378.265818,-10375.278794
18438.098827,-842.273555,5417.350366,-11925.827838
18438.101365,-3445.664544,-4383.651003,-8059.026517
18438.103903,382.851616,708.275490,-9877.571693
18438.106441,631.705166,1186.840010,-10566.704602
18438.108979,-669.990328,-1263.410333,-9647.860723
18438.111517,-114.855485,-1435.693560,-9169.296203
18438.114055,-976.271621,478.564520,-10107.282662
18438.116593,-3043.670347,1244.267752,-10547.562021
18438.119131,765.703232,-1110.269686,-9628.718142
18438.121669,95.712904,-3292.523898,-8729.016845
18438.124207,1799.402595,1512.263883,-10509.276859
18438.126745,-2871.387120,957.129040,-10298.708470
18438.129283,803.988394,-3292.523898,-8614.161360
18438.131821,-2756.531635,1397.408398,-10107.282662
18438.134359,2297.109696,5761.916821,-12155.538808
18438.136897,1588.834206,-7408.178770,-7408.178770
18438.139435,1588.834206,5130.211654,-11351.550414
18438.141973,-631.705166,6163.911018,-11734.402030
18438.144511,-3503.092286,-6833.901346,-7101.897477
18438.147049,440.279358,4804.787781,-11562.118803
18438.149587,401.994197,1856.830338,-10834.700733
18438.152125,-689.132909,-746.560651,-9801.001370
18438.154663,382.851616,-1129.412267,-9245.866526
18438.157201,114.855485,306.281293,-9877.571693
18438.159743,-497.707101,2986.242605,-10987.841379
18438.162285,-593.420005,-210.568389,-9686.145885
18438.164827,2029.113565,-593.420005,-9437.292334
18438.167368,1244.267752,3369.094221,-10681.560086
18438.169910,306.281293,-153.140646,-9647.860723
18438.172452,708.275490,-421.136778,-9341.579430
18438.174993,267.996131,229.710970,-9839.286531
18438.177535,-555.134843,3177.668413,-11121.839445
18438.180077,3005.385186,-4268.795518,-8499.305875
18438.182618,-2201.396792,-6546.762634,-7408.178770
18438.185160,-2411.965181,7025.327154,-12538.390424
18438.187702,-3388.236802,-3062.812928,-9360.722011
18438.190243,-133.998066,-5742.774240,-8097.311678
18438.192785,2679.961312,7446.463931,-12710.673651
18438.195327,-306.281293,-3905.086483,-8537.591037
18438.197869,-1607.976787,-2239.681954,-8633.303941
18438.200410,-459.421939,5034.498750,-11542.976222
18438.202952,-2756.531635,-937.986459,-9647.860723
18438.205494,-57.427742,-2163.111630,-9322.436850
18438.208035,1339.980656,306.281293,-10126.425243
18438.210577,-1033.699363,957.129040,-10356.136213
18438.213119,-3598.805190,-823.130974,-9513.862658
18438.215660,-669.990328,-2277.967115,-9265.009107
18438.218202,-95.712904,-267.996131,-9801.001370
18438.220744,1435.693560,516.849682,-10317.851051
18438.223286,-2297.109696,-593.420005,-9839.286531
18438.225827,325.423874,-1703.689691,-9169.296203
18438.228369,-3637.090352,2756.531635,-10490.134278
18438.230911,2890.529701,2182.254211,-10738.987829
18438.233452,-0.000000,-5647.061336,-7848.458128
18438.235994,2086.541307,8059.026517,-12557.533005
18438.238536,-191.425808,1033.699363,-9839.286531
18438.241077,-2029.113565,-4555.934230,-7752.745224
18438.243619,459.421939,7235.895542,-12614.960747
18438.246161,1091.127106,3560.520029,-11408.978157
18438.248702,-612.562586,-2584.248408,-9169.296203
18438.251244,1646.261949,-153.140646,-9628.718142
18438.253786,172.283227,995.414202,-10202.995566
18438.256328,-1435.693560,2182.254211,-10566.704602
18438.258869,-440.279358,-746.560651,-9437.292334
18438.261414,2163.111630,382.851616,-9877.571693
18438.263959,1339.980656,3043.670347,-10643.274925
18438.266503,631.705166,-976.271621,-9245.866526
18438.269048,669.990328,535.992262,-9609.575562
18438.271593,1110.269686,95.712904,-9858.429112
18438.274137,-1569.691626,2124.826469,-10719.845248
18438.276682,3407.379382,-2565.105827,-10088.140082
18438.279226,-1225.125171,-6508.477472,-7427.321350
18438.281771,-2067.398726,5111.069074,-11791.829773
18438.284316,-2737.389054,-1320.838075,-9934.999435
18438.286860,-421.136778,-6317.051664,-7810.172966
18438.289405,2297.109696,6872.186507,-12519.247843
18438.291950,-401.994197,-2373.680019,-9131.011042
18438.294494,-1971.685822,-2967.100024,-8518.448456
18438.297039,-325.423874,4594.219392,-11217.552349
18438.299584,-2239.681954,-325.423874,-9896.714274
18438.302128,133.998066,-2373.680019,-9169.296203
18438.304673,861.416136,-287.138712,-9915.856854
18438.307218,-1397.408398,1435.693560,-10470.991698
18438.309762,-2890.529701,401.994197,-10260.423309
18438.312307,-1110.269686,-1493.121302,-9418.149754
18438.314852,-0.000000,19.142581,-9973.284597
18438.317396,2163.111630,-593.420005,-9820.143950
18438.319941,-3311.666478,-689.132909,-9781.858789
18438.322486,1646.261949,191.425808,-9781.858789
18438.325030,-765.703232,-2048.256146,-8920.442653
18438.327575,1569.691626,5398.207786,-11830.114934
18438.330120,2373.680019,-4019.941968,-8614.161360
18438.332664,-0.000000,1722.832272,-10088.140082
18438.335209,535.992262,7197.610381,-12059.825904
18438.337754,-2833.101958,-5570.491013,-7580.461997
18438.340298,746.560651,2220.539373,-8556.733618
18438.342843,2277.967115,3407.379382,-11236.694930
18438.345388,-765.703232,95.712904,-10030.712339
18438.347932,-669.990328,-229.710970,-9494.720077
18438.350477,765.703232,-210.568389,-9724.431046
18438.353022,172.283227,1914.258080,-10604.989763
18438.355566,287.138712,899.701298,-10088.140082
18438.358111,1569.691626,-689.132909,-9437.292334
18438.360656,784.845813,1722.832272,-10183.852986
18438.363203,1014.556782,1167.697429,-10107.282662
18438.365750,-3407.379382,1186.840010,-10260.423309
18438.368297,2201.396792,957.129040,-10202.995566
18438.370845,-1799.402595,-1320.838075,-9705.288466
18438.373392,-4134.797453,4173.082614,-11332.407834
18438.375939,-133.998066,-650.847747,-9724.431046
18438.378487,-3369.094221,-5264.209720,-8097.311678
18438.381034,689.132909,5857.629725,-12270.394293
18438.383581,-823.130974,-4000.799387,-8633.303941
18438.386129,-2297.109696,-1914.258080,-9188.438784
18438.388676,-287.138712,6336.194245,-12098.111066
18438.391223,-2545.963246,-3043.670347,-8729.016845
18438.393771,38.285162,-765.703232,-9341.579430
18438.396318,210.568389,1780.260014,-10796.415571
18438.398865,-1378.265818,-114.855485,-10183.852986
18438.401413,-746.560651,-2067.398726,-9073.583299
18438.403960,-3215.953574,-1435.693560,-9513.862658
18438.406507,229.710970,1895.115499,-10796.415571
18438.409055,57.427742,-2277.967115,-9150.153622
18438.411602,-1320.838075,-842.273555,-9724.431046
18438.414149,-669.990328,2986.242605,-11006.983960
18438.416697,-1359.123237,-3024.527766,-8997.012976
18438.419244,-3177.668413,3024.527766,-10528.419440
18438.421791,3503.092286,823.130974,-9992.427178
18438.424338,-1205.982590,-4077.369710,-8461.020714
18438.426886,4058.227130,7465.606512,-12423.534939
18438.429433,421.136778,-2947.957443,-8288.737486
18438.431980,-612.562586,-153.140646,-9399.007173
18438.434528,363.709035,6068.198114,-11983.255581
18438.437075,-38.285162,210.568389,-10279.565890
18438.439622,689.132909,-3101.098090,-8767.302006
18438.442170,2297.109696,1167.697429,-10107.282662
18438.444717,-631.705166,1186.840010,-10260.423309
18438.447264,-1186.840010,765.703232,-9896.714274
18438.449812,937.986459,-1033.699363,-9322.436850
18438.452359,2565.105827,1493.121302,-10202.995566
18438.454906,516.849682,1435.693560,-10145.567824
18438.457454,440.279358,-574.277424,-9552.147819
18438.460001,401.994197,2182.254211,-10241.280728
18438.462548,2488.535504,-1071.984525,-9379.864592
18438.465098,-2813.959378,650.847747,-10317.851051
18438.467648,-516.849682,4077.369710,-11255.837510
18438.470198,57.427742,-5455.635528,-7848.458128
18438.472747,-1837.687757,-191.425808,-9781.858789
18438.475297,-210.568389,3541.377448,-11600.403965
18438.477847,-1512.263883,-6757.331022,-7829.315547
18438.480397,210.568389,3943.371645,-11370.692995
18438.482947,-95.712904,1895.115499,-10643.274925
18438.485496,-2737.389054,-4402.793584,-8116.454259
18438.488046,976.271621,2756.531635,-10509.276859
18438.490596,-995.414202,-401.994197,-9801.001370
18438.493146,-1244.267752,-344.566454,-10088.140082
18438.495696,38.285162,-593.420005,-9762.716208
18438.498245,-1550.549045,-689.132909,-9858.429112
18438.500795,287.138712,440.279358,-10107.282662
18438.503345,-650.847747,-1665.404530,-9245.866526
18438.505895,-1512.263883,612.562586,-10375.278794
18438.508445,38.285162,1397.408398,-10470.991698
18438.510994,-1703.689691,-2909.672282,-9169.296203
18438.513544,-2679.961312,4613.361973,-11140.982026
18438.516094,3043.670347,-1454.836141,-9379.864592
18438.518644,-1550.549045,-2756.531635,-8958.727814
18438.521194,4613.361973,7293.323285,-12212.966550
18438.523743,133.998066,-4613.361973,-7618.747158
18438.526293,229.710970,1818.545176,-10030.712339
18438.528843,344.566454,5455.635528,-11696.116869
18438.531393,-440.279358,-4919.643266,-9762.716208
18438.533943,1282.552914,-3292.523898,-8595.018779
18438.536492,2048.256146,1397.408398,-10241.280728
18438.539042,-918.843878,1684.547110,-10490.134278
18438.541592,-727.418070,153.140646,-9820.143950
18438.544142,1531.406464,-1186.840010,-9131.011042
18438.546692,2699.103893,2048.256146,-10451.849117
18438.549241,229.710970,497.707101,-9877.571693
18438.551791,363.709035,-325.423874,-9533.005238
18438.554341,-306.281293,3177.668413,-10528.419440
18438.556891,2909.672282,-1052.841944,-9456.434915
18438.559441,-3062.812928,-631.705166,-9801.001370
18438.561990,2277.967115,3483.949706,-10987.841379
18438.564540,133.998066,-3349.951640,-8652.446522
18438.567092,-2105.683888,-3215.953574,-8786.444587
18438.569643,555.134843,5187.639397,-12021.540742
18438.572195,-1665.404530,-5723.631659,-8173.882002
18438.574747,-1110.269686,1244.267752,-10470.991698
18438.577298,-76.570323,3905.086483,-11332.407834
18438.579850,-2756.531635,-4134.797453,-8269.594906
18438.582401,784.845813,1473.978722,-10145.567824
18438.584953,267.996131,-401.994197,-9934.999435
18438.587505,-1205.982590,-593.420005,-9992.427178
18438.590056,-191.425808,-459.421939,-9724.431046
18438.592608,-2584.248408,-918.843878,-9762.716208
18438.595160,-172.283227,535.992262,-10566.704602
18438.597711,114.855485,-1780.260014,-9265.009107
18438.600263,-210.568389,-1416.550979,-9571.290400
18438.602814,-1684.547110,2871.387120,-10930.413637
18438.605366,708.275490,-3158.525832,-8805.587168
18438.607918,-3905.086483,765.703232,-9915.856854
18438.610469,3330.809059,5111.069074,-11810.972354
18438.613021,133.998066,-6527.620053,-7657.032320
18438.615572,2201.396792,6680.760699,-11944.970419
18438.618124,210.568389,2928.814862,-10509.276859
18438.620676,-2986.242605,-4957.928427,-7637.889739
18438.623227,612.562586,5991.627790,-12040.683323
18438.625779,-153.140646,-229.710970,-10049.854920
18438.628330,-0.000000,-2048.256146,-9245.866526
18438.630882,1225.125171,-861.416136,-9399.007173
18438.633434,-191.425808,1244.267752,-10298.708470
18438.635985,-1225.125171,2928.814862,-10796.415571
18438.638537,650.847747,-880.558717,-9418.149754
18438.641088,1569.691626,899.701298,-9973.284597
18438.643640,1263.410333,2124.826469,-10490.134278
18438.646192,1512.263883,-1225.125171,-8977.870395
18438.648743,-2392.822600,899.701298,-9934.999435
18438.651295,1244.267752,3943.371645,-11064.411702
18438.653846,57.427742,-5187.639397,-8556.733618
18438.656398,-4268.795518,3866.801322,-11217.552349
18438.658950,-976.271621,1684.547110,-12500.105262
18438.661501,-4823.930362,-6451.049730,-7771.887805
18438.664053,57.427742,-344.566454,-10068.997501
18438.666604,2297.109696,3024.527766,-11026.126541
18438.669138,-1588.834206,-5685.346498,-8039.883936
18438.671672,-1129.412267,3637.090352,-11160.124606
18438.674206,-1244.267752,1933.400661,-10547.562021
18438.676740,-2392.822600,-1627.119368,-9111.868461
18438.679274,880.558717,-95.712904,-9915.856854
18438.681807,-689.132909,-306.281293,-10030.712339
18438.684341,-1895.115499,555.134843,-10317.851051
18438.686875,-1799.402595,-2067.398726,-9399.007173
18438.689409,-1473.978722,1531.406464,-10547.562021
18438.691943,-1167.697429,2316.252277,-10853.843314
18438.694477,669.990328,-1225.125171,-9552.147819
18438.697010,-3043.670347,-2297.109696,-9360.722011
18438.699544,-287.138712,5781.059402,-11638.689126
18438.702078,2909.672282,-4881.358104,-8135.596840
18438.704612,-995.414202,19.142581,-9647.860723
18438.707146,5206.781978,5455.635528,-11581.261384
18438.709679,-287.138712,-6451.049730,-6929.614250
18438.712213,1990.828403,5417.350366,-11428.120738
18438.714747,114.855485,2813.959378,-10662.417506
18438.717281,-0.000000,-5245.067139,-7944.171032
18438.719815,2048.256146,1493.121302,-10375.278794
18438.722349,-689.132909,1990.828403,-10375.278794
18438.724882,-1263.410333,2009.970984,-10643.274925
18438.727416,267.996131,-937.986459,-9341.579430
18438.729950,1607.976787,-459.421939,-9437.292334
18438.732484,2163.111630,3196.810994,-10758.130410
18438.735018,746.560651,-1799.402595,-9016.155557
18438.737551,1091.127106,-19.142581,-9571.290400
18438.740085,-861.416136,4728.217458,-11179.267187
18438.742619,2182.254211,-1454.836141,-9399.007173
18438.745153,-2048.256146,-2048.256146,-9303.294269
18438.747687,210.568389,5953.342629,-11964.113000
18438.750221,-574.277424,-7331.608446,-7274.180704
18438.752754,-1416.550979,-440.279358,-9609.575562
18438.755288,823.130974,5838.487144,-12155.538808
18438.757822,-708.275490,-2947.957443,-9035.298138
18438.760356,-2201.396792,-2679.961312,-8920.442653
18438.762890,-593.420005,5685.346498,-11830.114934
18438.765423,-2258.824534,-2086.541307,-8997.012976
18438.767957,114.855485,-842.273555,-9188.438784
18438.770495,191.425808,421.136778,-10202.995566
18438.773033,-1933.400661,593.420005,-10356.136213
18438.775571,-1282.552914,-1014.556782,-9724.431046
18438.778109,-2124.826469,-1607.976787,-9590.432981
18438.780648,-1454.836141,3062.812928,-11160.124606
18438.783186,-1320.838075,-1914.258080,-9399.007173
18438.785724,689.132909,-1703.689691,-8997.012976
18438.788262,-2813.959378,306.281293,-10088.140082
18438.790800,746.560651,3656.232933,-11083.554283
18438.793338,2048.256146,-6068.198114,-7676.174901
18438.795876,-325.423874,3981.656806,-11026.126541
18438.798414,4383.651003,2201.396792,-10700.702667
18438.800952,-325.423874,-5838.487144,-7121.040058
18438.803490,2143.969050,7810.172966,-12232.109131
18438.806028,-574.277424,-287.138712,-9667.003304
18438.808566,440.279358,-4670.789715,-8135.596840
18438.811104,2201.396792,3139.383251,-11064.411702
18438.813642,-555.134843,784.845813,-10356.136213
18438.816180,-1741.974853,-267.996131,-9743.573627
18438.818718,-172.283227,-191.425808,-9743.573627
18438.821256,1052.841944,1454.836141,-10145.567824
18438.823794,1933.400661,1550.549045,-10030.712339
