#time,accel_x,accel_y,accel_z
23636.941758,-918.843878,-1091.127106,9169.296203
23636.944366,-708.275490,880.558717,9494.720077
23636.946973,995.414202,2603.390989,10107.282662
23636.949580,-861.416136,210.568389,9533.005238
23636.952188,1110.269686,-803.988394,9265.009107
23636.954795,-555.134843,2201.396792,10202.995566
23636.957402,-1531.406464,-708.275490,9016.155557
23636.960008,1320.838075,-2699.103893,8920.442653
23636.962614,1665.404530,3043.670347,10700.702667
23636.965220,-880.558717,-459.421939,9418.149754
23636.967827,1359.123237,-1646.261949,8824.729749
23636.970433,267.996131,2890.529701,10566.704602
23636.973039,76.570323,2756.531635,10317.851051
23636.975645,-344.566454,-1454.836141,8901.300072
23636.978251,267.996131,-76.570323,9475.577496
23636.980857,229.710970,2182.254211,10317.851051
23636.983463,191.425808,-1378.265818,9188.438784
23636.986069,1339.980656,-689.132909,9150.153622
23636.988675,172.283227,2258.824534,10183.852986
23636.991281,-497.707101,-57.427742,9513.862658
23636.993887,899.701298,-1435.693560,9169.296203
23636.996493,210.568389,2297.109696,10164.710405
23636.999099,-976.271621,153.140646,9456.434915
23637.001706,535.992262,-1512.263883,9073.583299
23637.004312,650.847747,1799.402595,10126.425243
23637.006918,861.416136,1569.691626,10049.854920
23637.009524,-803.988394,-861.416136,9226.723946
23637.012130,38.285162,-746.560651,9188.438784
23637.014736,1722.832272,1741.974853,10260.423309
23637.017342,-1933.400661,-19.142581,9399.007173
23637.019948,842.273555,-2029.113565,8805.587168
23637.022554,-306.281293,2565.105827,10298.708470
23637.025160,114.855485,555.134843,9724.431046
23637.027766,-631.705166,-3292.523898,8537.591037
23637.030372,2833.101958,3158.525832,10432.706536
23637.032978,-2679.961312,1607.976787,9954.142016
23637.035584,4421.936165,-4632.504554,8250.452325
23637.038191,1837.687757,2373.680019,10298.708470
23637.040797,-5245.067139,2316.252277,9954.142016
23637.043403,4441.078746,-4249.652938,8346.165229
23637.046009,-2718.246474,7389.036189,11485.548480
23637.048615,-1646.261949,-2603.390989,8499.305875
23637.051221,937.986459,-937.986459,8920.442653
23637.053827,248.853550,6183.053598,11523.833642
23637.056433,-1301.695494,-3196.810994,8346.165229
23637.059039,-191.425808,-2258.824534,8595.018779
23637.061645,-1722.832272,5379.065205,11006.983960
23637.064251,-1416.550979,-1971.685822,8729.016845
23637.066857,1225.125171,-784.845813,8997.012976
23637.069462,-516.849682,3579.662610,9781.858789
23637.072068,-1091.127106,2431.107762,10107.282662
23637.074674,-2048.256146,-976.271621,8977.870395
23637.077279,-248.853550,-210.568389,9284.151688
23637.079885,95.712904,1895.115499,10068.997501
23637.082491,363.709035,382.851616,9513.862658
23637.085096,114.855485,-344.566454,9437.292334
23637.087702,-1110.269686,1205.982590,9724.431046
23637.090308,-1684.547110,306.281293,9360.722011
23637.092914,-382.851616,-229.710970,9207.581365
23637.095519,306.281293,918.843878,9667.003304
23637.098125,-57.427742,1148.554848,9743.573627
23637.100731,-535.992262,-363.709035,9379.864592
23637.103336,-593.420005,363.709035,9418.149754
23637.105942,-1148.554848,1473.978722,9609.575562
23637.108548,-1320.838075,1473.978722,9513.862658
23637.111153,38.285162,-669.990328,9265.009107
23637.113759,995.414202,976.271621,9896.714274
23637.116365,-1493.121302,1550.549045,9839.286531
23637.118970,-516.849682,-1780.260014,8843.872330
23637.121576,-1761.117434,1148.554848,9571.290400
23637.124182,1339.980656,2086.541307,10164.710405
23637.126788,-267.996131,574.277424,9647.860723
23637.129393,1397.408398,-172.283227,9379.864592
23637.131999,-2967.100024,1933.400661,9858.429112
23637.134605,1665.404530,-803.988394,8901.300072
23637.137210,1971.685822,3158.525832,10317.851051
23637.139816,-5034.498750,-95.712904,9188.438784
23637.142422,6144.768437,-4594.219392,8461.020714
23637.145027,1512.263883,7848.458128,12155.538808
23637.147631,-1761.117434,-3981.656806,8307.880067
23637.150235,1225.125171,-3407.379382,8365.307810
23637.152839,-3043.670347,7465.606512,11944.970419
23637.155443,421.136778,-3273.381317,8346.165229
23637.158047,1799.402595,-2182.254211,8805.587168
23637.160651,-708.275490,6010.770371,11274.980091
23637.163254,363.709035,-3292.523898,8729.016845
23637.165858,1167.697429,-976.271621,9245.866526
23637.168462,-459.421939,1493.121302,9858.429112
23637.171066,535.992262,1167.697429,9858.429112
23637.173670,133.998066,-1301.695494,9341.579430
23637.176274,708.275490,38.285162,9590.432981
23637.178878,-210.568389,1512.263883,9801.001370
23637.181481,-459.421939,593.420005,9456.434915
23637.184085,229.710970,-555.134843,9456.434915
23637.186689,1014.556782,1148.554848,9954.142016
23637.189293,-76.570323,497.707101,9552.147819
23637.191897,-325.423874,-382.851616,9245.866526
23637.194501,95.712904,-76.570323,9533.005238
23637.197105,421.136778,1301.695494,9877.571693
23637.199709,-344.566454,0.000000,9647.860723
23637.202312,421.136778,-363.709035,9494.720077
23637.204916,784.845813,-287.138712,9705.288466
23637.207520,-248.853550,363.709035,9686.145885
23637.210124,-172.283227,-401.994197,9322.436850
23637.212728,210.568389,535.992262,9647.860723
23637.215332,593.420005,-382.851616,9571.290400
23637.217936,746.560651,1263.410333,9762.716208
23637.220539,-57.427742,497.707101,9686.145885
23637.223143,-497.707101,-516.849682,9341.579430
23637.225747,1895.115499,76.570323,9743.573627
23637.228351,-2067.398726,1952.543242,9858.429112
23637.230955,248.853550,-3349.951640,8461.020714
23637.233559,3349.951640,306.281293,9571.290400
23637.236163,-3541.377448,1167.697429,9915.856854
23637.238766,3043.670347,-2833.101958,8575.876198
23637.241370,-2679.961312,5245.067139,10968.698798
23637.243974,-3062.812928,-2833.101958,8441.878133
23637.246578,3732.803256,-459.421939,9092.725880
23637.249182,-2986.242605,7197.610381,11370.692995
23637.251782,861.416136,-5455.635528,7657.032320
23637.254383,1091.127106,708.275490,9801.001370
23637.256983,-1148.554848,6489.334891,11332.407834
23637.259583,-1627.119368,-5398.207786,7810.172966
23637.262184,210.568389,1263.410333,9743.573627
23637.264784,-727.418070,5225.924558,10796.415571
23637.267385,57.427742,1722.832272,9896.714274
23637.269985,-746.560651,-2928.814862,8346.165229
23637.272585,-344.566454,2603.390989,10164.710405
23637.275186,-1416.550979,2411.965181,10279.565890
23637.277786,-976.271621,-2009.970984,8633.303941
23637.280386,382.851616,38.285162,9360.722011
23637.282987,95.712904,2737.389054,10279.565890
23637.285587,38.285162,248.853550,9609.575562
23637.288188,-1588.834206,-440.279358,9226.723946
23637.290788,-937.986459,172.283227,9399.007173
23637.293388,76.570323,1473.978722,9820.143950
23637.295989,-38.285162,363.709035,9609.575562
23637.298589,-191.425808,210.568389,9418.149754
23637.301189,-1665.404530,784.845813,9552.147819
23637.303790,-861.416136,2335.394858,10068.997501
23637.306390,-114.855485,229.710970,9379.864592
23637.308991,593.420005,-765.703232,8977.870395
23637.311591,-1110.269686,2258.824534,10049.854920
23637.314191,-1052.841944,-612.562586,9418.149754
23637.316792,-1359.123237,-937.986459,9188.438784
23637.319392,1110.269686,3120.240670,10356.136213
23637.321992,-899.701298,1971.685822,9820.143950
23637.324593,1454.836141,-1454.836141,8824.729749
23637.327193,-2354.537438,2354.537438,10011.569758
23637.329794,1665.404530,689.132909,9475.577496
23637.332394,459.421939,3120.240670,10394.421374
23637.334994,-3809.373579,-2488.535504,8461.020714
23637.337595,7044.469734,-765.703232,9647.860723
23637.340195,-842.273555,7944.171032,11983.255581
23637.342795,57.427742,-7925.028451,7006.184573
23637.345396,459.421939,76.570323,9379.864592
23637.347996,-3369.094221,6106.483275,11600.403965
23637.350596,325.423874,-5723.631659,7561.319416
23637.353197,2029.113565,1071.984525,9839.286531
23637.355795,-0.000000,5838.487144,11332.407834
23637.358393,593.420005,-4173.082614,8269.594906
23637.360991,746.560651,-76.570323,9533.005238
23637.363589,-210.568389,1627.119368,9992.427178
23637.366186,-325.423874,784.845813,9609.575562
23637.368784,459.421939,-1761.117434,9092.725880
23637.371382,1282.552914,1186.840010,10088.140082
23637.373980,-191.425808,1550.549045,9896.714274
23637.376578,19.142581,-421.136778,9226.723946
23637.379176,-153.140646,-382.851616,9303.294269
23637.381774,708.275490,669.990328,9781.858789
23637.384372,-363.709035,306.281293,9513.862658
23637.386970,-0.000000,76.570323,9456.434915
23637.389568,325.423874,401.994197,9552.147819
23637.392166,842.273555,612.562586,9743.573627
23637.394764,95.712904,-267.996131,9513.862658
23637.397362,38.285162,-765.703232,9341.579430
23637.399959,-382.851616,306.281293,9781.858789
23637.402557,-382.851616,459.421939,9724.431046
23637.405155,1895.115499,-229.710970,9533.005238
23637.407753,-784.845813,267.996131,9418.149754
23637.410351,19.142581,-38.285162,9360.722011
23637.412949,-0.000000,516.849682,9762.716208
23637.415547,-248.853550,995.414202,9877.571693
23637.418145,1205.982590,-1627.119368,9245.866526
23637.420743,1148.554848,3483.949706,10528.419440
23637.423341,-1569.691626,-1167.697429,9092.725880
23637.425939,3215.953574,-784.845813,9226.723946
23637.428537,-3043.670347,2411.965181,10145.567824
23637.431134,-1761.117434,-2258.824534,8595.018779
23637.433732,2297.109696,2450.250342,10279.565890
23637.436330,-5283.352301,2584.248408,9973.284597
23637.438928,2641.676150,-5895.914886,7427.321350
23637.441526,-1550.549045,7561.319416,11466.405899
23637.444124,-918.843878,689.132909,9571.290400
23637.446722,344.566454,-6049.055533,7714.460062
23637.449320,287.138712,6776.473603,11428.120738
23637.451918,-2163.111630,708.275490,9781.858789
23637.454516,267.996131,-4862.215523,7771.887805
23637.457114,363.709035,4996.213589,10872.985894
23637.459708,-306.281293,5781.059402,11140.982026
23637.462302,-1244.267752,-2603.390989,8518.448456
23637.464897,535.992262,-650.847747,9150.153622
23637.467491,-1378.265818,4498.506488,10853.843314
23637.470086,-650.847747,-1282.552914,9035.298138
23637.472680,-114.855485,-1550.549045,8805.587168
23637.475275,708.275490,2794.816797,10336.993632
23637.477869,57.427742,1359.123237,10030.712339
23637.480463,-1091.127106,-497.707101,9379.864592
23637.483058,-689.132909,-19.142581,9303.294269
23637.485652,-535.992262,1588.834206,9781.858789
23637.488247,-765.703232,516.849682,9533.005238
23637.490841,-574.277424,976.271621,9609.575562
23637.493435,-133.998066,765.703232,9705.288466
23637.496030,-363.709035,689.132909,9609.575562
23637.498624,-1301.695494,535.992262,9437.292334
23637.501219,-38.285162,-191.425808,9322.436850
23637.503813,-555.134843,842.273555,9839.286531
23637.506408,-1014.556782,1933.400661,9896.714274
23637.509002,-689.132909,-1588.834206,8824.729749
23637.511596,325.423874,1416.550979,9590.432981
23637.514191,-1071.984525,1282.552914,9801.001370
23637.516785,-1722.832272,880.558717,9360.722011
23637.519380,-3081.955509,-2392.822600,8786.444587
23637.521974,3771.088418,2660.818731,10470.991698
23637.524568,1454.836141,6776.473603,11600.403965
23637.527163,-2545.963246,-5130.211654,7752.745224
23637.529757,3790.230998,-3292.523898,8690.731683
23637.532352,-4823.930362,9590.432981,12480.962682
23637.534946,1435.693560,-6853.043926,7484.749093
23637.537540,1741.974853,-612.562586,9399.007173
23637.540135,689.132909,6929.614250,11657.831707
23637.542729,-363.709035,-4957.928427,7886.743290
23637.545324,-172.283227,-19.142581,9188.438784
23637.547918,-401.994197,4230.510357,11083.554283
23637.550513,172.283227,-2163.111630,8958.727814
23637.553107,555.134843,-1875.972918,8920.442653
23637.555701,535.992262,2469.392923,10336.993632
23637.558296,57.427742,1339.980656,10011.569758
23637.560890,-306.281293,-650.847747,9188.438784
23637.563417,229.710970,229.710970,9533.005238
23637.565944,287.138712,1818.545176,9934.999435
23637.568471,133.998066,95.712904,9552.147819
23637.570998,-267.996131,-1033.699363,9169.296203
23637.573524,306.281293,650.847747,9743.573627
23637.576051,-57.427742,995.414202,9877.571693
23637.578578,1091.127106,-325.423874,9456.434915
23637.581105,535.992262,267.996131,9533.005238
23637.583632,-363.709035,344.566454,9647.860723
23637.586159,-191.425808,-191.425808,9494.720077
23637.588685,1665.404530,-95.712904,9724.431046
23637.591212,-497.707101,-133.998066,9322.436850
23637.593739,191.425808,210.568389,9418.149754
23637.596266,172.283227,1186.840010,10011.569758
23637.598793,-765.703232,229.710970,9552.147819
23637.601320,2067.398726,-1378.265818,9322.436850
23637.603846,-1129.412267,3503.092286,10394.421374
23637.606373,-421.136778,-2411.965181,8767.302006
23637.608900,1569.691626,1225.125171,9858.429112
23637.611427,-1550.549045,-38.285162,9686.145885
23637.613954,3675.375514,440.279358,9590.432981
23637.616481,-5034.498750,2545.963246,10030.712339
23637.619007,1263.410333,-4555.934230,8231.309744
23637.621534,3905.086483,-421.136778,9111.868461
23637.624061,-2756.531635,7944.171032,11600.403965
23637.626588,287.138712,-5130.211654,7695.317482
23637.629115,1741.974853,-421.136778,9609.575562
23637.631642,-1569.691626,7274.180704,11676.974288
23637.634168,-2029.113565,-5647.061336,7657.032320
23637.636695,1033.699363,172.283227,9552.147819
23637.639222,-842.273555,6508.477472,11428.120738
23637.641749,-497.707101,-2277.967115,8384.450390
23637.644276,1091.127106,-803.988394,8920.442653
23637.646803,-1493.121302,4479.363907,10758.130410
23637.649329,-2124.826469,-2718.246474,8537.591037
23637.651856,-669.990328,-401.994197,8403.592971
23637.654383,-440.279358,2335.394858,10202.995566
23637.656910,689.132909,1780.260014,10068.997501
23637.659437,-440.279358,-459.421939,9341.579430
23637.661964,-708.275490,19.142581,9207.581365
23637.664503,-957.129040,1186.840010,9762.716208
23637.667043,-2163.111630,708.275490,9437.292334
23637.669583,440.279358,-229.710970,9265.009107
23637.672123,842.273555,2622.533570,10183.852986
23637.674663,-76.570323,229.710970,9475.577496
23637.677203,-708.275490,-363.709035,9131.011042
23637.679742,-976.271621,1895.115499,10088.140082
23637.682282,-1684.547110,38.285162,9513.862658
23637.684822,-555.134843,363.709035,9245.866526
23637.687362,210.568389,19.142581,9303.294269
23637.689902,-114.855485,1837.687757,9801.001370
23637.692442,-880.558717,-803.988394,9341.579430
23637.694982,-2373.680019,1416.550979,9686.145885
23637.697522,-2737.389054,-1837.687757,8805.587168
23637.700061,3866.801322,2947.957443,10336.993632
23637.702601,-4498.506488,2029.113565,9820.143950
23637.705141,3617.947771,-7580.461997,7159.325219
23637.707681,2641.676150,7312.465866,12002.398162
23637.710221,-3675.375514,210.568389,9724.431046
23637.712761,1952.543242,-6757.331022,7465.606512
23637.715301,1684.547110,995.414202,10107.282662
23637.717841,918.843878,6049.055533,11236.694930
23637.720381,-440.279358,-5589.633594,7523.034254
23637.722920,-19.142581,937.986459,9609.575562
23637.725460,-957.129040,4728.217458,11236.694930
23637.728000,-440.279358,-3369.094221,8441.878133
23637.730540,1378.265818,-2009.970984,8824.729749
23637.733080,1014.556782,3560.520029,10681.560086
23637.735620,-1129.412267,-1129.412267,9303.294269
23637.738160,669.990328,-1493.121302,9073.583299
23637.740700,-497.707101,3062.812928,10336.993632
23637.743240,76.570323,-153.140646,9207.581365
23637.745779,765.703232,-1186.840010,9016.155557
23637.748319,38.285162,-267.996131,9456.434915
23637.750859,229.710970,1531.406464,10126.425243
23637.753399,-497.707101,-210.568389,9437.292334
23637.755939,459.421939,-440.279358,9341.579430
23637.758479,497.707101,1263.410333,9934.999435
23637.761019,76.570323,114.855485,9533.005238
23637.763559,1435.693560,-957.129040,9399.007173
23637.766054,-861.416136,267.996131,9705.288466
23637.768549,-363.709035,-76.570323,9341.579430
23637.771045,478.564520,325.423874,9609.575562
23637.773540,-727.418070,957.129040,9628.718142
23637.776036,1895.115499,-784.845813,9456.434915
23637.778531,-287.138712,2220.539373,10145.567824
23637.781026,-880.558717,-1435.693560,9111.868461
23637.783522,1627.119368,1033.699363,9762.716208
23637.786017,-2143.969050,-727.418070,9265.009107
23637.788513,4307.080680,325.423874,9647.860723
23637.791008,-4479.363907,3541.377448,10413.563955
23637.793503,-19.142581,-5436.492947,7867.600709
23637.795999,1512.263883,5379.065205,11045.269122
23637.798494,-3464.807125,4326.223261,10490.134278
23637.800990,1875.972918,-6489.334891,7044.469734
23637.803485,1990.828403,4957.928427,11045.269122
23637.805980,-2756.531635,2813.959378,10088.140082
23637.808476,-1780.260014,-7886.743290,6948.756830
23637.810971,1225.125171,-1856.830338,8882.157491
23637.813467,-727.418070,7657.032320,11734.402030
23637.815962,-823.130974,-1301.695494,8709.874264
23637.818458,421.136778,-2258.824534,8537.591037
23637.820953,95.712904,5034.498750,11064.411702
23637.823448,-2909.672282,-1052.841944,8901.300072
23637.825944,-172.283227,-2450.250342,8729.016845
23637.828439,-382.851616,4077.369710,10872.985894
23637.830935,133.998066,803.988394,9686.145885
23637.833430,-325.423874,-2316.252277,8518.448456
23637.835925,19.142581,2048.256146,10088.140082
23637.838421,-2641.676150,2507.678085,10068.997501
23637.840916,-1244.267752,-459.421939,9188.438784
23637.843412,574.277424,-1339.980656,8920.442653
23637.845907,-76.570323,3330.809059,10451.849117
23637.848402,-1397.408398,440.279358,9475.577496
23637.850898,191.425808,-1531.406464,9016.155557
23637.853393,-440.279358,2852.244539,10260.423309
23637.855889,-2354.537438,1416.550979,9533.005238
23637.858384,114.855485,-2756.531635,8499.305875
23637.860879,459.421939,2584.248408,10088.140082
23637.863375,-727.418070,976.271621,9877.571693
23637.865891,-2756.531635,-1033.699363,8939.585234
23637.868406,-555.134843,-1627.119368,9131.011042
23637.870922,2373.680019,5379.065205,10279.565890
23637.873438,-3139.383251,4881.358104,10470.991698
23637.875954,765.703232,-8365.307810,6699.903280
23637.878469,3924.229064,3254.238736,10853.843314
23637.880985,-4594.219392,5895.914886,11504.691061
23637.883501,2258.824534,-8575.876198,7101.897477
23637.886017,708.275490,3828.516160,10911.271056
23637.888532,95.712904,4192.225195,10585.847182
23637.891048,382.851616,-6757.331022,7159.325219
23637.893564,976.271621,3560.520029,10470.991698
23637.896080,-2201.396792,3637.090352,10643.274925
23637.898595,-382.851616,-5704.489078,7771.887805
23637.901111,1703.689691,574.277424,9801.001370
23637.903627,1033.699363,3732.803256,10662.417506
23637.906142,-880.558717,421.136778,9743.573627
23637.908658,-325.423874,-2718.246474,8729.016845
23637.911174,248.853550,2699.103893,10336.993632
23637.913690,-1033.699363,784.845813,9647.860723
23637.916205,1225.125171,-2411.965181,8575.876198
23637.918721,765.703232,2086.541307,10088.140082
23637.921237,-1071.984525,1052.841944,9896.714274
23637.923753,-95.712904,-2507.678085,8729.016845
23637.926268,669.990328,2067.398726,10183.852986
23637.928784,287.138712,1110.269686,9992.427178
23637.931300,1895.115499,-2450.250342,8958.727814
23637.933816,-478.564520,918.843878,9456.434915
23637.936331,-823.130974,1493.121302,9992.427178
23637.938847,401.994197,-784.845813,9092.725880
23637.941363,57.427742,1454.836141,9667.003304
23637.943879,2143.969050,172.283227,9858.429112
23637.946394,-918.843878,1339.980656,10011.569758
23637.948910,-382.851616,-2239.681954,8901.300072
23637.951426,516.849682,2622.533570,10126.425243
23637.953942,-1435.693560,-1799.402595,9035.298138
23637.956457,4460.221326,1282.552914,9973.284597
23637.958973,-4996.213589,2545.963246,10145.567824
23637.961489,2086.541307,-5417.350366,7848.458128
23637.964005,-497.707101,7905.885870,11887.542677
23637.966535,-2967.100024,8020.741355,11581.261384
23637.969066,899.701298,-5723.631659,7503.891674
23637.971597,2335.394858,784.845813,9820.143950
23637.974127,-1665.404530,6699.903280,11523.833642
23637.976658,-2737.389054,-6833.901346,7216.752962
23637.979188,918.843878,1052.841944,9858.429112
23637.981719,-2124.826469,6144.768437,11313.265253
23637.984250,-478.564520,-3541.377448,7886.743290
23637.986780,95.712904,612.562586,9054.440718
23637.989311,-306.281293,5417.350366,11294.122672
23637.991842,-2086.541307,-2354.537438,8843.872330
23637.994372,-38.285162,-1952.543242,8843.872330
23637.996903,-957.129040,3522.234867,9743.573627
23637.999433,-1110.269686,1339.980656,9915.856854
23638.001964,325.423874,-1186.840010,8939.585234
23638.004495,-957.129040,1665.404530,9896.714274
23638.007025,-1244.267752,1473.978722,9877.571693
23638.009556,-0.000000,-842.273555,9054.440718
23638.012087,-191.425808,1339.980656,9724.431046
23638.014617,-1301.695494,1244.267752,9667.003304
23638.017148,153.140646,-535.992262,9245.866526
23638.019678,-57.427742,1914.258080,10030.712339
23638.022209,-2143.969050,1435.693560,9475.577496
23638.024740,-287.138712,-2526.820666,8537.591037
23638.027270,38.285162,2507.678085,10126.425243
23638.029801,-1129.412267,2086.541307,10107.282662
23638.032332,-1799.402595,1014.556782,9552.147819
23638.034862,-2392.822600,-3464.807125,8461.020714
23638.037393,3349.951640,4211.367776,10777.272990
23638.039924,-5321.637462,2986.242605,9858.429112
23638.042454,3254.238736,-8307.880067,6776.473603
23638.044985,3158.525832,6680.760699,11906.685258
23638.047515,-3139.383251,2124.826469,10394.421374
23638.050046,1990.828403,-8116.454259,7025.327154
23638.052577,-478.564520,5819.344563,11485.548480
23638.055107,-459.421939,1646.261949,9839.286531
23638.057638,1205.982590,-5589.633594,7618.747158
23638.060169,1148.554848,5513.063270,9284.151688
23638.062699,-1837.687757,5781.059402,11370.692995
23638.065230,-612.562586,-4326.223261,8269.594906
23638.067771,1722.832272,-1952.543242,8977.870395
23638.070313,823.130974,4402.793584,10968.698798
23638.072855,-38.285162,-1569.691626,9188.438784
23638.075396,-153.140646,-1722.832272,8958.727814
23638.077938,497.707101,2871.387120,10451.849117
23638.080479,-650.847747,1110.269686,9724.431046
23638.083021,-95.712904,-2029.113565,8614.161360
23638.085563,995.414202,459.421939,9724.431046
23638.088104,555.134843,2335.394858,10356.136213
23638.090646,-210.568389,-1454.836141,9054.440718
23638.093187,459.421939,-1818.545176,9016.155557
23638.095729,2163.111630,746.560651,9954.142016
23638.098271,-918.843878,1052.841944,9820.143950
23638.100812,-344.566454,-2718.246474,8499.305875
23638.103354,650.847747,2450.250342,10432.706536
23638.105895,-1627.119368,2105.683888,9781.858789
23638.108437,2182.254211,-2297.109696,8461.020714
23638.110979,-1397.408398,2086.541307,10030.712339
23638.113520,784.845813,-823.130974,9686.145885
23638.116062,-1454.836141,574.277424,9647.860723
23638.118603,1282.552914,-1607.976787,9245.866526
23638.121145,1263.410333,2833.101958,10241.280728
23638.123687,-4249.652938,-1665.404530,10222.138147
23638.126228,1014.556782,-5053.641331,7771.887805
23638.128770,899.701298,6910.471669,11428.120738
23638.131311,-3503.092286,2813.959378,10260.423309
23638.133853,1741.974853,-6125.625856,7389.036189
23638.136395,1569.691626,6087.340694,11255.837510
23638.138936,-2641.676150,1320.838075,9590.432981
23638.141478,-1071.984525,-7484.749093,6987.041992
23638.144019,-114.855485,6125.625856,11638.689126
23638.146561,-3081.955509,1684.547110,9896.714274
23638.149103,765.703232,-4977.071008,7389.036189
23638.151644,344.566454,5895.914886,10987.841379
23638.154186,-478.564520,2909.672282,10585.847182
23638.156728,-1933.400661,-1397.408398,9016.155557
23638.159269,-153.140646,-2641.676150,8403.592971
23638.161811,57.427742,4058.227130,10604.989763
23638.164352,-555.134843,133.998066,9686.145885
23638.166894,344.566454,-2277.967115,8843.872330
23638.169445,-708.275490,2871.387120,10298.708470
23638.171995,-1320.838075,1741.974853,9762.716208
23638.174546,-287.138712,-1397.408398,8805.587168
23638.177097,-555.134843,2124.826469,9973.284597
23638.179648,-555.134843,1244.267752,9839.286531
23638.182198,57.427742,-593.420005,9207.581365
23638.184749,-2220.539373,1493.121302,9609.575562
23638.187300,-689.132909,-535.992262,9303.294269
23638.189851,-574.277424,459.421939,9418.149754
23638.192402,516.849682,1378.265818,9820.143950
23638.194952,-3158.525832,765.703232,9322.436850
23638.197503,995.414202,-2392.822600,8882.157491
23638.200054,880.558717,5321.637462,11026.126541
23638.202605,-4039.084549,-2220.539373,8480.163294
23638.205155,6508.477472,-2009.970984,9111.868461
23638.207706,-1359.123237,8327.022648,12174.681389
23638.210257,727.418070,-7044.469734,7255.038123
23638.212808,229.710970,-1722.832272,8843.872330
23638.215358,-1569.691626,5704.489078,11562.118803
23638.217909,-76.570323,-3924.229064,8288.737486
23638.220460,1186.840010,-4460.221326,7944.171032
23638.223011,1588.834206,4689.932296,10949.556218
23638.225561,-2373.680019,631.705166,9609.575562
23638.228112,1684.547110,-4230.510357,8346.165229
23638.230663,1110.269686,3349.951640,10758.130410
23638.233214,459.421939,440.279358,9858.429112
23638.235764,478.564520,-3273.381317,8384.450390
23638.238315,267.996131,1512.263883,9934.999435
23638.240866,-803.988394,2201.396792,10088.140082
23638.243417,-1320.838075,-2124.826469,8633.303941
23638.245967,1186.840010,-172.283227,9418.149754
23638.248518,1071.984525,3158.525832,10490.134278
23638.251069,612.562586,1933.400661,10279.565890
23638.253620,-172.283227,-2067.398726,8901.300072
23638.256171,1416.550979,-38.285162,9628.718142
23638.258721,-1148.554848,1665.404530,9877.571693
23638.261272,-287.138712,-2277.967115,8633.303941
23638.263823,784.845813,1110.269686,9954.142016
23638.266374,-1569.691626,1416.550979,9992.427178
23638.268924,1052.841944,-1454.836141,8748.159426
23638.271482,229.710970,574.277424,9609.575562
23638.274039,1473.978722,1837.687757,10145.567824
23638.276597,-2258.824534,-1550.549045,9150.153622
23638.279154,3445.664544,-842.273555,9399.007173
23638.281711,-3081.955509,1856.830338,9934.999435
23638.284269,-3330.809059,-2450.250342,8365.307810
23638.286826,3617.947771,401.994197,9437.292334
23638.289384,-5895.914886,5647.061336,10815.558152
23638.291941,210.568389,-5876.772306,7408.178770
23638.294499,-765.703232,4153.940034,10490.134278
23638.297056,-440.279358,4077.369710,10643.274925
23638.299614,918.843878,-6049.055533,7714.460062
23638.302171,459.421939,4211.367776,10681.560086
23638.304728,-3215.953574,2986.242605,10336.993632
23638.307286,593.420005,-5321.637462,7733.602643
23638.309843,153.140646,4134.797453,10566.704602
23638.312401,-1493.121302,3771.088418,10375.278794
23638.314958,-382.851616,-1091.127106,9150.153622
23638.317516,-478.564520,-1684.547110,8863.014910
23638.320073,-248.853550,2794.816797,10202.995566
23638.322631,-593.420005,382.851616,9322.436850
23638.325188,-229.710970,-784.845813,9169.296203
23638.327745,-631.705166,689.132909,9877.571693
23638.330303,-516.849682,1627.119368,9934.999435
23638.332860,-1205.982590,153.140646,9226.723946
23638.335418,-976.271621,918.843878,9456.434915
23638.337975,-382.851616,1646.261949,9915.856854
23638.340533,19.142581,210.568389,9437.292334
23638.343090,-325.423874,153.140646,9437.292334
23638.345647,-650.847747,2431.107762,10126.425243
23638.348205,-1186.840010,1646.261949,10107.282662
23638.350762,-133.998066,-1301.695494,8863.014910
23638.353320,-631.705166,421.136778,9399.007173
23638.355877,-325.423874,3962.514226,10470.991698
23638.358435,-3962.514226,-2775.674216,8556.733618
23638.360992,3503.092286,172.283227,9552.147819
23638.363550,-3330.809059,6585.047795,11179.267187
23638.366107,535.992262,-7982.456194,6757.331022
23638.368664,4134.797453,1320.838075,10126.425243
23638.371222,-3522.234867,6661.618118,11810.972354
23638.373784,957.129040,-7216.752962,7446.463931
23638.376346,306.281293,1588.834206,10164.710405
23638.378908,1091.127106,6202.196179,11274.980091
23638.381470,-746.560651,-1052.841944,8882.157491
23638.384033,861.416136,-2775.674216,8595.018779
23638.386595,-1607.976787,4479.363907,10987.841379
23638.389157,-325.423874,-2086.541307,9073.583299
23638.391719,2220.539373,-2277.967115,8939.585234
23638.394281,1052.841944,3292.523898,10681.560086
23638.396843,248.853550,-746.560651,9418.149754
23638.399405,-440.279358,-1531.406464,8958.727814
23638.401968,-114.855485,2201.396792,10145.567824
23638.404530,-229.710970,937.986459,9705.288466
23638.407092,612.562586,-612.562586,9150.153622
23638.409654,957.129040,38.285162,9341.579430
23638.412216,899.701298,612.562586,9858.429112
23638.414778,880.558717,-555.134843,9609.575562
23638.417340,-650.847747,-76.570323,9513.862658
23638.419903,-803.988394,-57.427742,9360.722011
23638.422465,1359.123237,306.281293,9667.003304
23638.425027,-344.566454,1454.836141,9858.429112
23638.427589,1148.554848,-803.988394,9207.581365
23638.430151,-1952.543242,-344.566454,9226.723946
23638.432713,1167.697429,650.847747,9667.003304
23638.435276,-2124.826469,478.564520,9667.003304
23638.437838,3407.379382,-2411.965181,9150.153622
23638.440400,-1435.693560,2986.242605,10317.851051
23638.442962,-5187.639397,191.425808,9207.581365
23638.445524,3751.945837,-2679.961312,8709.874264
23638.448086,-4268.795518,7389.036189,11351.550414
23638.450648,-1837.687757,-2794.816797,8307.880067
23638.453211,1071.984525,-363.709035,9131.011042
23638.455773,19.142581,6202.196179,11351.550414
23638.458335,-459.421939,-4900.500685,8116.454259
23638.460897,172.283227,-363.709035,9226.723946
23638.463459,-2450.250342,5991.627790,11274.980091
23638.466021,-382.851616,-4077.369710,8154.739421
23638.468583,1301.695494,1071.984525,9609.575562
23638.471146,-1301.695494,5819.344563,11026.126541
23638.473708,-1033.699363,-2392.822600,10068.997501
23638.476274,-1684.547110,-3120.240670,8327.022648
23638.478840,363.709035,1301.695494,9667.003304
23638.481406,114.855485,2794.816797,10241.280728
23638.483973,-363.709035,-1014.556782,9245.866526
23638.486539,-612.562586,-823.130974,9245.866526
23638.489105,-937.986459,2584.248408,10145.567824
23638.491672,-1818.545176,842.273555,9360.722011
23638.494238,38.285162,-38.285162,9226.723946
23638.496804,-57.427742,1895.115499,9973.284597
23638.499370,-478.564520,478.564520,9456.434915
23638.501937,-153.140646,880.558717,9590.432981
23638.504503,-1569.691626,210.568389,9667.003304
23638.507069,-765.703232,-287.138712,9169.296203
23638.509635,-612.562586,-440.279358,9092.725880
23638.512202,-325.423874,4058.227130,10356.136213
23638.514768,-3503.092286,-2105.683888,8824.729749
23638.517334,3177.668413,287.138712,9590.432981
23638.519900,-4000.799387,5742.774240,10968.698798
23638.522467,1378.265818,-7637.889739,6987.041992
23638.525033,3943.371645,2258.824534,10356.136213
23638.527599,-3177.668413,4977.071008,11274.980091
23638.530165,1033.699363,-6833.901346,7561.319416
23638.532732,-172.283227,2411.965181,10356.136213
23638.535298,210.568389,3656.232933,10451.849117
23638.537864,-325.423874,-1952.543242,8690.731683
23638.540430,1071.984525,-1569.691626,8939.585234
23638.542997,-1837.687757,3713.660675,10758.130410
23638.545563,669.990328,-1607.976787,9188.438784
23638.548129,1722.832272,-1129.412267,9245.866526
23638.550695,1033.699363,1512.263883,10145.567824
23638.553262,421.136778,-880.558717,9303.294269
23638.555828,-995.414202,-287.138712,9284.151688
23638.558394,-306.281293,1052.841944,9781.858789
23638.560960,-708.275490,880.558717,9705.288466
23638.563527,689.132909,-76.570323,9418.149754
23638.566093,1416.550979,-133.998066,9552.147819
23638.568659,1875.972918,172.283227,9858.429112
23638.571226,-976.271621,287.138712,9686.145885
23638.573792,-1301.695494,-937.986459,9131.011042
23638.576358,746.560651,631.705166,9724.431046
23638.578927,-210.568389,1014.556782,9705.288466
23638.581496,1454.836141,-306.281293,9360.722011
23638.584065,574.277424,-114.855485,9724.431046
23638.586633,478.564520,2182.254211,10298.708470
23638.589202,-1933.400661,-1339.980656,8977.870395
23638.591771,3215.953574,-401.994197,9399.007173
23638.594340,-2450.250342,555.134843,9609.575562
23638.596909,3445.664544,-2048.256146,8997.012976
23638.599478,-2201.396792,4919.643266,11064.411702
23638.602046,-6451.049730,2450.250342,9820.143950
23638.604615,1703.689691,-4957.928427,7523.034254
23638.607184,-1320.838075,6585.047795,11045.269122
23638.609753,-153.140646,823.130974,9743.573627
23638.612322,2239.681954,-4881.358104,8403.592971
23638.614891,-842.273555,6202.196179,11408.978157
23638.617459,-3885.943902,-880.558717,8939.585234
23638.620028,937.986459,-3464.807125,8173.882002
23638.622597,-555.134843,5647.061336,11064.411702
23638.625166,-937.986459,497.707101,9360.722011
23638.627735,-229.710970,-2009.970984,8480.163294
23638.630304,-650.847747,3273.381317,10681.560086
23638.632873,-1071.984525,555.134843,9647.860723
23638.635441,-593.420005,-1244.267752,8748.159426
23638.638010,248.853550,363.709035,9533.005238
23638.640579,-535.992262,1684.547110,10183.852986
23638.643148,-918.843878,306.281293,9437.292334
23638.645717,-1186.840010,363.709035,9265.009107
23638.648286,-555.134843,2067.398726,9896.714274
23638.650854,-325.423874,555.134843,9552.147819
23638.653423,-1454.836141,229.710970,9111.868461
23638.655992,1167.697429,344.566454,9552.147819
23638.658561,153.140646,1627.119368,10183.852986
23638.661130,-593.420005,-76.570323,9533.005238
23638.663699,-1339.980656,-823.130974,9111.868461
23638.666267,2392.822600,1014.556782,9762.716208
23638.668836,-2373.680019,4575.076811,10470.991698
23638.671405,-95.712904,-5130.211654,7771.887805
23638.673974,5149.354235,4555.934230,11179.267187
23638.676543,-4287.938099,3139.383251,10643.274925
23638.679112,3503.092286,-8939.585234,6814.758765
23638.681682,-1167.697429,5455.635528,10987.841379
23638.684252,229.710970,1282.552914,10030.712339
23638.686822,497.707101,-5398.207786,7944.171032
23638.689392,937.986459,4843.072942,10796.415571
23638.691962,-535.992262,1378.265818,9801.001370
23638.694532,421.136778,-3560.520029,8346.165229
23638.697102,-516.849682,2660.818731,10317.851051
23638.699672,-344.566454,2469.392923,10356.136213
23638.702242,401.994197,-1780.260014,9054.440718
23638.704812,995.414202,-1205.982590,9131.011042
23638.707382,708.275490,1952.543242,10183.852986
23638.709952,-593.420005,593.420005,9724.431046
23638.712523,-363.709035,-708.275490,9284.151688
23638.715093,57.427742,899.701298,9667.003304
23638.717663,1071.984525,1052.841944,9628.718142
23638.720233,1244.267752,-1588.834206,9303.294269
23638.722803,727.418070,57.427742,9896.714274
23638.725373,-1454.836141,555.134843,9820.143950
23638.727943,133.998066,-803.988394,9150.153622
23638.730513,172.283227,-38.285162,9245.866526
23638.733083,1435.693560,1148.554848,9667.003304
23638.735653,-708.275490,-842.273555,9379.864592
23638.738223,1378.265818,765.703232,9839.286531
23638.740793,-2297.109696,593.420005,9762.716208
23638.743363,3024.527766,-1416.550979,9073.583299
23638.745934,-2143.969050,574.277424,9609.575562
23638.748504,1780.260014,-1397.408398,9054.440718
23638.751074,-803.988394,4307.080680,10892.128475
23638.753644,-4957.928427,-1703.689691,8786.444587
23638.756214,2947.957443,-1512.263883,8671.589102
23638.758784,-2392.822600,7293.323285,11294.122672
23638.761354,650.847747,-3177.668413,8269.594906
23638.763924,2335.394858,-5513.063270,8193.024582
23638.766494,-248.853550,5493.920690,11274.980091
23638.769064,-3809.373579,708.275490,9552.147819
23638.771634,593.420005,-4326.223261,7905.885870
23638.774204,-172.283227,4900.500685,10700.702667
23638.776774,-1339.980656,1856.830338,9743.573627
23638.779345,-440.279358,-2603.390989,8365.307810
23638.781915,-306.281293,2565.105827,10451.849117
23638.784451,-382.851616,1741.974853,10107.282662
23638.786988,-708.275490,-1205.982590,8767.302006
23638.789525,-478.564520,401.994197,9513.862658
23638.792062,-287.138712,1550.549045,10030.712339
23638.794599,-1129.412267,1741.974853,9686.145885
23638.797136,-803.988394,-153.140646,9016.155557
23638.799673,-363.709035,1148.554848,9667.003304
23638.802210,-1837.687757,1952.543242,9896.714274
23638.804747,1665.404530,-421.136778,9456.434915
23638.807284,459.421939,1684.547110,10088.140082
23638.809821,-1282.552914,-19.142581,9322.436850
23638.812357,-803.988394,-1473.978722,9035.298138
23638.814894,-1320.838075,3598.805190,10260.423309
23638.817431,-3177.668413,-2335.394858,8556.733618
23638.819968,3369.094221,1378.265818,9724.431046
23638.822505,-4536.791650,5264.209720,10834.700733
23638.825042,2833.101958,-7771.887805,7312.465866
23638.827579,4058.227130,-4383.651003,8269.594906
23638.830116,-3215.953574,7944.171032,11906.685258
23638.832653,669.990328,-3790.230998,8518.448456
23638.835190,727.418070,-2718.246474,8843.872330
23638.837727,823.130974,5455.635528,10930.413637
23638.840263,-172.283227,-1780.260014,8729.016845
23638.842800,1052.841944,-957.129040,9226.723946
23638.845337,-1033.699363,2718.246474,10547.562021
23638.847874,-976.271621,-918.843878,9111.868461
23638.850411,1454.836141,-2143.969050,8882.157491
23638.852948,1780.260014,2545.963246,10643.274925
23638.855485,535.992262,-363.709035,9552.147819
23638.858022,-401.994197,-497.707101,9265.009107
23638.860559,-842.273555,-574.277424,9226.723946
23638.863096,497.707101,1454.836141,9973.284597
23638.865632,1033.699363,191.425808,9647.860723
23638.868169,1167.697429,-631.705166,9360.722011
23638.870706,153.140646,287.138712,9820.143950
23638.873243,-248.853550,344.566454,9801.001370
23638.875780,306.281293,-1052.841944,9226.723946
23638.878317,-133.998066,1607.976787,9628.718142
23638.880854,976.271621,229.710970,9513.862658
23638.883391,-1071.984525,-995.414202,9169.296203
23638.885935,1397.408398,-95.712904,9456.434915
23638.888479,-2411.965181,1875.972918,9954.142016
23638.891023,918.843878,-1569.691626,9322.436850
23638.893567,2220.539373,2182.254211,10088.140082
23638.896111,-4575.076811,-306.281293,9073.583299
23638.898655,3905.086483,-1761.117434,8997.012976
23638.901199,-4919.643266,6010.770371,11006.983960
23638.903743,-1359.123237,-3388.236802,8212.167163
23638.906288,-210.568389,1033.699363,9456.434915
23638.908832,-440.279358,5876.772306,11179.267187
23638.911376,1416.550979,-4479.363907,8365.307810
23638.913920,229.710970,1282.552914,9915.856854
23638.916464,-3139.383251,3809.373579,10585.847182
23638.919008,-306.281293,-3617.947771,8231.309744
23638.921552,1703.689691,-1244.267752,8843.872330
23638.924096,-133.998066,4517.649069,10585.847182
23638.926640,-957.129040,0.000000,9513.862658
23638.929184,-1282.552914,-1550.549045,8939.585234
23638.931728,-382.851616,1780.260014,9934.999435
23638.934272,-727.418070,1550.549045,9705.288466
23638.936816,-114.855485,-995.414202,8977.870395
23638.939361,19.142581,1416.550979,9992.427178
23638.941905,-1186.840010,1818.545176,9896.714274
23638.944449,-1014.556782,-784.845813,8882.157491
23638.946993,-1569.691626,1493.121302,9647.860723
23638.949537,267.996131,2392.822600,10298.708470
23638.952081,-133.998066,-574.277424,9322.436850
23638.954625,-555.134843,-918.843878,8939.585234
23638.957169,-937.986459,-440.279358,9284.151688
23638.959713,-1244.267752,3292.523898,10241.280728
23638.962257,-3311.666478,-2584.248408,8556.733618
23638.964801,3311.666478,1129.412267,9628.718142
23638.967345,-3943.371645,5647.061336,10834.700733
23638.969889,2392.822600,-7695.317482,7235.895542
23638.972434,3598.805190,2967.100024,10700.702667
23638.974978,-3407.379382,3445.664544,10738.987829
23638.977522,210.568389,-6699.903280,7484.749093
23638.980066,57.427742,2679.961312,10528.419440
23638.982610,937.986459,3005.385186,10298.708470
23638.985154,-57.427742,-3483.949706,8595.018779
23638.987672,746.560651,-842.273555,9207.581365
23638.990190,-842.273555,2545.963246,10604.989763
23638.992707,-1014.556782,-1071.984525,9092.725880
23638.995225,1531.406464,-1569.691626,9111.868461
23638.997743,1244.267752,2335.394858,10413.563955
23639.000261,574.277424,-1205.982590,9303.294269
23639.002779,727.418070,-229.710970,9303.294269
23639.005297,-1014.556782,1933.400661,10049.854920
23639.007814,650.847747,-650.847747,9360.722011
23639.010332,612.562586,0.000000,9513.862658
23639.012850,76.570323,440.279358,9686.145885
23639.015368,153.140646,-631.705166,9475.577496
23639.017886,937.986459,-306.281293,9667.003304
23639.020404,-1091.127106,459.421939,9475.577496
23639.022921,172.283227,-95.712904,9188.438784
23639.025439,995.414202,-325.423874,9609.575562
23639.027957,1205.982590,2488.535504,10375.278794
23639.030475,-1052.841944,-1129.412267,9265.009107
23639.032993,2220.539373,38.285162,9513.862658
23639.035511,-2105.683888,382.851616,9590.432981
23639.038028,3751.945837,-631.705166,9265.009107
23639.040546,-3503.092286,3771.088418,10451.849117
23639.043064,-1607.976787,-3445.664544,8365.307810
23639.045582,2048.256146,3196.810994,10413.563955
23639.048100,-1799.402595,6795.616184,11255.837510
23639.050617,-38.285162,-1416.550979,8767.302006
23639.053135,1550.549045,-2220.539373,8997.012976
23639.055653,-2143.969050,5398.207786,11198.409768
23639.058171,-2488.535504,-3292.523898,8250.452325
23639.060689,363.709035,-248.853550,9226.723946
23639.063207,-784.845813,4326.223261,10796.415571
23639.065724,114.855485,-708.275490,9016.155557
23639.068242,19.142581,191.425808,9226.723946
23639.070760,-650.847747,2182.254211,10241.280728
23639.073278,-861.416136,229.710970,9533.005238
23639.075796,-1091.127106,-574.277424,9092.725880
23639.078314,-76.570323,1244.267752,9743.573627
23639.080831,306.281293,1895.115499,10088.140082
23639.083349,-631.705166,1186.840010,9667.003304
23639.085867,-535.992262,-555.134843,8958.727814
23639.088396,-2890.529701,2297.109696,9705.288466
23639.090924,401.994197,401.994197,9667.003304
23639.093452,1129.412267,516.849682,9724.431046
23639.095981,-382.851616,1301.695494,9762.716208
23639.098509,-1205.982590,-1607.976787,8958.727814
23639.101038,-1205.982590,2373.680019,9973.284597
23639.103566,-3349.951640,-823.130974,9131.011042
23639.106095,2871.387120,382.851616,9284.151688
23639.108623,-3885.943902,4728.217458,10528.419440
23639.111152,-1952.543242,-2947.957443,8633.303941
23639.113680,4077.369710,-3503.092286,8633.303941
23639.116209,-3407.379382,6412.764568,11619.546546
23639.118737,421.136778,-3388.236802,8652.446522
23639.121266,727.418070,-2105.683888,9111.868461
23639.123794,1263.410333,4613.361973,10681.560086
23639.126322,267.996131,-1627.119368,8767.302006
23639.128851,612.562586,-421.136778,9303.294269
23639.131379,-765.703232,1952.543242,10394.421374
23639.133908,-421.136778,-516.849682,9284.151688
23639.136436,535.992262,-1052.841944,9131.011042
23639.138965,1263.410333,995.414202,9973.284597
23639.141493,574.277424,-287.138712,9686.145885
23639.144022,421.136778,-459.421939,9207.581365
23639.146550,191.425808,765.703232,9686.145885
23639.149079,-669.990328,650.847747,9705.288466
23639.151607,325.423874,-1071.984525,9188.438784
23639.154136,1110.269686,612.562586,9743.573627
23639.156664,612.562586,459.421939,9896.714274
23639.159192,784.845813,-1531.406464,9303.294269
23639.161721,-325.423874,1454.836141,9896.714274
23639.164249,976.271621,574.277424,9743.573627
23639.166778,-1780.260014,-1129.412267,8958.727814
23639.169306,1014.556782,-535.992262,9341.579430
23639.171835,-937.986459,3081.955509,10279.565890
23639.174363,-669.990328,-1225.125171,9322.436850
23639.176892,3311.666478,708.275490,9743.573627
23639.179420,-5168.496816,2373.680019,10030.712339
23639.181949,2067.398726,-3962.514226,8288.737486
23639.184477,-1244.267752,5800.201982,11198.409768
23639.187006,-2143.969050,976.271621,9628.718142
23639.189542,1091.127106,-2909.672282,8346.165229
23639.192079,-210.568389,5379.065205,10892.128475
23639.194616,-133.998066,-1244.267752,9073.583299
23639.197153,-210.568389,-2067.398726,8748.159426
23639.199690,-2009.970984,4153.940034,10738.987829
23639.202227,-803.988394,-976.271621,9131.011042
23639.204764,765.703232,-555.134843,8786.444587
23639.207300,-133.998066,2048.256146,9533.005238
23639.209837,-1225.125171,1282.552914,9858.429112
23639.212374,-1167.697429,-325.423874,9418.149754
23639.214911,-803.988394,516.849682,9647.860723
23639.217448,-727.418070,918.843878,9705.288466
23639.219985,95.712904,76.570323,9475.577496
23639.222522,-57.427742,823.130974,9628.718142
23639.225058,-937.986459,1569.691626,9667.003304
23639.227595,-3388.236802,1378.265818,9284.151688
23639.230132,440.279358,-899.701298,9131.011042
23639.232669,1167.697429,2258.824534,10145.567824
23639.235206,-267.996131,1129.412267,9820.143950
23639.237743,-2565.105827,-1148.554848,9111.868461
23639.240279,1990.828403,57.427742,9762.716208
23639.242816,-3503.092286,4709.074877,10624.132344
23639.245353,1435.693560,-4364.508422,7771.887805
23639.247890,3598.805190,5187.639397,11102.696864
23639.250427,-3101.098090,612.562586,9896.714274
23639.252964,3809.373579,-6355.336826,7867.600709
23639.255501,-2450.250342,5838.487144,11294.122672
23639.258037,191.425808,-727.418070,9418.149754
23639.260574,478.564520,-4153.940034,8422.735552
23639.263111,1454.836141,4173.082614,10604.989763
23639.265648,95.712904,229.710970,9437.292334
23639.268185,210.568389,-1818.545176,8863.014910
23639.270722,-229.710970,-784.845813,9322.436850
23639.273259,-421.136778,1933.400661,10164.710405
23639.275795,-669.990328,-976.271621,9169.296203
23639.278332,3024.527766,-880.558717,9494.720077
23639.280869,746.560651,2392.822600,10394.421374
23639.283406,-746.560651,-1244.267752,8997.012976
23639.285943,1110.269686,-516.849682,9245.866526
23639.288480,-1493.121302,3062.812928,10394.421374
23639.291023,-0.000000,-2220.539373,8824.729749
23639.293567,1856.830338,-823.130974,9360.722011
23639.296110,1014.556782,2354.537438,10356.136213
23639.298654,-421.136778,-1818.545176,9035.298138
23639.301197,1033.699363,-2143.969050,8958.727814
23639.303741,-2086.541307,1435.693560,9743.573627
23639.306284,727.418070,-95.712904,9284.151688
23639.308828,-899.701298,861.416136,9590.432981
23639.311371,3369.094221,-612.562586,9839.286531
23639.313915,-1856.830338,2411.965181,10279.565890
23639.316458,-3522.234867,-3866.801322,7982.456194
23639.319002,2813.959378,2737.389054,10279.565890
23639.321546,-5972.485210,3483.949706,10298.708470
23639.324089,1607.976787,-6719.045861,7025.327154
23639.326633,-995.414202,5934.200048,11045.269122
23639.329176,-1263.410333,3809.373579,10470.991698
23639.331720,363.709035,-3962.514226,8250.452325
23639.334263,133.998066,-535.992262,9131.011042
23639.336807,-2373.680019,4881.358104,10968.698798
23639.339350,-516.849682,-2871.387120,8614.161360
23639.341894,344.566454,-57.427742,9284.151688
23639.344437,-1071.984525,4326.223261,10528.419440
23639.346981,-1263.410333,-823.130974,9073.583299
23639.349524,-267.996131,-497.707101,9265.009107
23639.352068,-746.560651,1933.400661,9934.999435
23639.354611,-861.416136,-19.142581,9226.723946
23639.357155,-210.568389,-95.712904,9513.862658
23639.359698,-440.279358,1741.974853,10088.140082
23639.362242,-880.558717,976.271621,9456.434915
23639.364785,-669.990328,1378.265818,9494.720077
23639.367329,-803.988394,669.990328,9533.005238
23639.369872,-382.851616,-248.853550,9207.581365
23639.372416,1301.695494,1071.984525,9858.429112
23639.374959,-3024.527766,1244.267752,9858.429112
23639.377503,1646.261949,-2048.256146,9207.581365
23639.380047,-1454.836141,4441.078746,10604.989763
23639.382590,-937.986459,-2718.246474,8365.307810
23639.385134,5972.485210,2469.392923,10279.565890
23639.387677,-3464.807125,3962.514226,10872.985894
23639.390221,3024.527766,-7235.895542,7580.461997
23639.392770,-1205.982590,3215.953574,10432.706536
23639.395320,-287.138712,4862.215523,11198.409768
23639.397869,746.560651,-1837.687757,9092.725880
23639.400418,803.988394,-918.843878,9054.440718
23639.402968,1110.269686,3981.656806,10758.130410
23639.405517,-38.285162,-784.845813,9303.294269
23639.408067,-229.710970,-1799.402595,8958.727814
23639.410616,-401.994197,1435.693560,10030.712339
23639.413166,-191.425808,-133.998066,9590.432981
23639.415715,1818.545176,-535.992262,9399.007173
23639.418265,669.990328,899.701298,9973.284597
23639.420814,19.142581,-95.712904,9360.722011
23639.423363,-191.425808,287.138712,9513.862658
23639.425913,-555.134843,593.420005,9609.575562
23639.428462,976.271621,-382.851616,9475.577496
23639.431012,1282.552914,-631.705166,9513.862658
23639.433561,-153.140646,842.273555,9896.714274
23639.436111,-19.142581,-746.560651,9341.579430
23639.438660,-210.568389,-1110.269686,9207.581365
23639.441210,1186.840010,2335.394858,10068.997501
23639.443759,-976.271621,593.420005,9513.862658
23639.446308,3139.383251,-861.416136,9150.153622
23639.448858,-2124.826469,306.281293,9552.147819
23639.451407,2086.541307,-918.843878,9226.723946
23639.453957,-2718.246474,3522.234867,10547.562021
23639.456506,-2756.531635,-2986.242605,8595.018779
23639.459056,2565.105827,-3713.660675,8001.598774
23639.461605,-1512.263883,6546.762634,11160.124606
23639.464155,-669.990328,478.564520,9360.722011
23639.466704,1014.556782,-3598.805190,8575.876198
23639.469253,-2009.970984,4728.217458,10815.558152
23639.471803,-2507.678085,-1512.263883,8805.587168
23639.474352,76.570323,-842.273555,9092.725880
23639.476902,-363.709035,3215.953574,10547.562021
23639.479451,267.996131,459.421939,9456.434915
23639.482001,-995.414202,555.134843,9150.153622
23639.484550,-497.707101,765.703232,9762.716208
23639.487100,-765.703232,803.988394,9667.003304
23639.489649,-1263.410333,382.851616,9399.007173
23639.492198,-1014.556782,-95.712904,9418.149754
23639.494752,-210.568389,555.134843,9686.145885
23639.497306,-1971.685822,2545.963246,9858.429112
23639.499860,574.277424,38.285162,9207.581365
23639.502414,229.710970,1990.828403,9954.142016
23639.504968,-1837.687757,516.849682,9360.722011
23639.507522,1014.556782,-1895.115499,8901.300072
23639.510076,-2756.531635,2565.105827,10030.712339
23639.512630,248.853550,-2316.252277,8958.727814
23639.515184,497.707101,3254.238736,10490.134278
23639.517738,-3158.525832,-172.283227,9111.868461
23639.520291,6585.047795,-957.129040,9265.009107
23639.522845,2086.541307,4843.072942,11102.696864
23639.525399,-1818.545176,-516.849682,9533.005238
23639.527953,-133.998066,-5685.346498,7829.315547
23639.530507,-210.568389,3905.086483,10968.698798
23639.533061,880.558717,1435.693560,10088.140082
23639.535615,535.992262,-2794.816797,8403.592971
23639.538169,1397.408398,3215.953574,10413.563955
23639.540723,-306.281293,995.414202,9973.284597
23639.543277,-114.855485,-2545.963246,8652.446522
23639.545831,-57.427742,210.568389,9590.432981
23639.548384,248.853550,1263.410333,10068.997501
23639.550938,-172.283227,-574.277424,9207.581365
23639.553492,1167.697429,-899.701298,9245.866526
23639.556046,306.281293,421.136778,9571.290400
23639.558600,-38.285162,2086.541307,10145.567824
23639.561154,421.136778,-1531.406464,9226.723946
23639.563708,1799.402595,-823.130974,9418.149754
23639.566262,-478.564520,1627.119368,10088.140082
23639.568816,-172.283227,-1550.549045,8977.870395
23639.571370,1837.687757,-421.136778,9724.431046
23639.573924,-823.130974,3732.803256,10624.132344
23639.576481,-172.283227,-2354.537438,8671.589102
23639.579038,918.843878,1493.121302,9839.286531
23639.581596,1129.412267,708.275490,10011.569758
23639.584153,1761.117434,1454.836141,9954.142016
23639.586710,-4843.072942,1799.402595,9877.571693
23639.589268,-95.712904,-4536.791650,8193.024582
23639.591825,1569.691626,6259.623922,11447.263318
23639.594383,-2411.965181,3043.670347,10164.710405
23639.596940,1569.691626,-5455.635528,7389.036189
23639.599498,-114.855485,5283.352301,11064.411702
23639.602055,-1014.556782,957.129040,9858.429112
23639.604613,-382.851616,-4785.645200,7848.458128
23639.607170,-1033.699363,4230.510357,10834.700733
23639.609727,-880.558717,1493.121302,9992.427178
23639.612285,574.277424,-1971.685822,8690.731683
23639.614842,-133.998066,2909.672282,10049.854920
23639.617400,-555.134843,1761.117434,10030.712339
23639.619957,-1588.834206,497.707101,9590.432981
23639.622515,-918.843878,-574.277424,9054.440718
23639.625072,-497.707101,1014.556782,9705.288466
23639.627630,-459.421939,1416.550979,9820.143950
23639.630187,-1684.547110,650.847747,9379.864592
23639.632744,612.562586,555.134843,9494.720077
23639.635302,-57.427742,2756.531635,10126.425243
23639.637859,-1761.117434,191.425808,9265.009107
23639.640417,325.423874,-2220.539373,8843.872330
23639.642974,-2450.250342,2967.100024,10202.995566
23639.645532,-842.273555,-2431.107762,8729.016845
23639.648089,1914.258080,2450.250342,10145.567824
23639.650647,-3254.238736,4575.076811,10509.276859
23639.653204,1895.115499,-5398.207786,7733.602643
23639.655762,2718.246474,2756.531635,10394.421374
23639.658319,-2565.105827,2316.252277,10375.278794
23639.660876,-153.140646,-5838.487144,7829.315547
23639.663434,440.279358,2009.970984,10356.136213
23639.665991,1263.410333,3483.949706,10528.419440
23639.668549,114.855485,-3139.383251,8327.022648
23639.671106,1454.836141,1665.404530,10030.712339
23639.673664,-306.281293,2105.683888,10375.278794
23639.676221,-57.427742,-2163.111630,8767.302006
23639.678754,306.281293,-669.990328,9360.722011
23639.681288,516.849682,1895.115499,10298.708470
23639.683821,153.140646,1301.695494,9973.284597
23639.686355,133.998066,-1512.263883,8901.300072
23639.688888,57.427742,593.420005,9647.860723
23639.691421,19.142581,1627.119368,9934.999435
23639.693955,1033.699363,-1454.836141,9245.866526
23639.696488,1263.410333,-593.420005,9552.147819
23639.699021,-401.994197,1378.265818,10011.569758
23639.701555,803.988394,-995.414202,9341.579430
23639.704088,-1741.974853,-1416.550979,8958.727814
23639.706622,1263.410333,1110.269686,9686.145885
23639.709155,-1493.121302,1799.402595,9915.856854
23639.711688,3120.240670,-1531.406464,9207.581365
23639.714222,133.998066,4249.652938,10011.569758
23639.716755,-4441.078746,-1665.404530,8671.589102
23639.719288,2947.957443,191.425808,9590.432981
23639.721822,-5379.065205,3771.088418,10317.851051
23639.724355,306.281293,-4594.219392,7714.460062
23639.726889,-976.271621,3885.943902,10356.136213
23639.729422,-1091.127106,4689.932296,10738.987829
23639.731955,1225.125171,-4230.510357,8327.022648
23639.734489,-1186.840010,2239.681954,9992.427178
23639.737022,-2507.678085,1646.261949,9801.001370
23639.739555,-287.138712,-1914.258080,8786.444587
23639.742089,-344.566454,1550.549045,10011.569758
23639.744622,-95.712904,2373.680019,10049.854920
23639.747156,-899.701298,1186.840010,9705.288466
23639.749689,-1167.697429,-899.701298,9016.155557
23639.752222,-172.283227,76.570323,9341.579430
23639.754756,-1167.697429,2143.969050,9992.427178
23639.757289,-1473.978722,-344.566454,9379.864592
23639.759822,-1320.838075,727.418070,9513.862658
23639.762356,593.420005,2201.396792,9915.856854
23639.764889,344.566454,689.132909,9399.007173
23639.767423,-2029.113565,363.709035,9226.723946
23639.769956,-382.851616,-555.134843,9437.292334
23639.772489,-2297.109696,1856.830338,9877.571693
23639.775023,-57.427742,-2584.248408,8652.446522
23639.777556,3369.094221,3043.670347,9552.147819
23639.780097,-3656.232933,4307.080680,10470.991698
23639.782637,2086.541307,-5704.489078,7618.747158
23639.785177,2641.676150,3024.527766,10394.421374
23639.787718,-2565.105827,2086.541307,10375.278794
23639.790258,-306.281293,-5781.059402,7886.743290
23639.792799,708.275490,2277.967115,10509.276859
23639.795339,1454.836141,3043.670347,10451.849117
23639.797879,-57.427742,-2947.957443,8288.737486
23639.800420,1493.121302,1856.830338,10145.567824
23639.802960,-191.425808,1895.115499,10298.708470
23639.805501,57.427742,-2354.537438,8671.589102
23639.808041,229.710970,-516.849682,9379.864592
23639.810581,1588.834206,1493.121302,10202.995566
23639.813122,153.140646,1914.258080,10241.280728
23639.815662,-172.283227,-1550.549045,8786.444587
23639.818203,459.421939,-114.855485,9284.151688
23639.820743,382.851616,2009.970984,10164.710405
23639.823284,995.414202,-1454.836141,9245.866526
23639.825824,229.710970,-1167.697429,9303.294269
23639.828364,-153.140646,1454.836141,10011.569758
23639.830905,1473.978722,-784.845813,9552.147819
23639.833445,-210.568389,1129.412267,9724.431046
23639.835986,-19.142581,-114.855485,9456.434915
23639.838526,440.279358,1665.404530,9820.143950
23639.841066,-1148.554848,-880.558717,9399.007173
23639.843607,3656.232933,918.843878,9667.003304
23639.846147,-4594.219392,2622.533570,10088.140082
23639.848688,76.570323,-4307.080680,8307.880067
23639.851228,1339.980656,5379.065205,11160.124606
23639.853769,-1952.543242,3349.951640,10279.565890
23639.856309,1167.697429,-4957.928427,7446.463931
23639.858849,-133.998066,4517.649069,10643.274925
23639.861390,-363.709035,1895.115499,10145.567824
23639.863930,-765.703232,-4402.793584,8116.454259
23639.866471,-497.707101,3445.664544,10470.991698
23639.869011,-1091.127106,1818.545176,10107.282662
23639.871551,478.564520,-1607.976787,8786.444587
23639.874092,-76.570323,-344.566454,8863.014910
23639.876632,-535.992262,2220.539373,10049.854920
23639.879173,-1454.836141,535.992262,9609.575562
23639.881718,-842.273555,-689.132909,8997.012976
23639.884264,-880.558717,1359.123237,9820.143950
23639.886810,-2029.113565,1473.978722,9647.860723
23639.889356,1263.410333,-95.712904,9303.294269
23639.891902,1148.554848,2737.389054,10164.710405
23639.894447,-2392.822600,593.420005,9188.438784
23639.896993,76.570323,-1627.119368,8863.014910
23639.899539,-2890.529701,2584.248408,10107.282662
23639.902085,937.986459,-1569.691626,9131.011042
23639.904631,2392.822600,1167.697429,9705.288466
23639.907176,-4402.793584,1263.410333,9609.575562
23639.909722,5264.209720,-2660.818731,8863.014910
23639.912268,535.992262,5206.781978,11179.267187
23639.914814,-1129.412267,-3330.809059,8288.737486
23639.917359,-76.570323,-3369.094221,8461.020714
23639.919905,-19.142581,4957.928427,11447.263318
23639.922451,976.271621,-1646.261949,9207.581365
23639.924997,440.279358,-1588.834206,8729.016845
23639.927543,1110.269686,4766.502619,10853.843314
23639.930088,-574.277424,-669.990328,9379.864592
23639.932634,248.853550,-3139.383251,8537.591037
23639.935180,-57.427742,1741.974853,10049.854920
23639.937726,267.996131,2373.680019,10451.849117
23639.940272,57.427742,-306.281293,9552.147819
23639.942817,459.421939,-937.986459,9188.438784
23639.945363,210.568389,1397.408398,9801.001370
23639.947909,401.994197,401.994197,9609.575562
23639.950455,1091.127106,-1607.976787,9322.436850
23639.953001,210.568389,459.421939,9877.571693
23639.955546,-248.853550,287.138712,9724.431046
23639.958092,421.136778,-1875.972918,9150.153622
23639.960638,1569.691626,2220.539373,10107.282662
23639.963184,-689.132909,995.414202,9705.288466
23639.965729,1952.543242,-842.273555,9150.153622
23639.968275,-2354.537438,-210.568389,9360.722011
23639.970821,842.273555,-708.275490,9245.866526
23639.973367,-1148.554848,4345.365842,10738.987829
23639.975913,-4000.799387,-3196.810994,8365.307810
23639.978458,3541.377448,-440.279358,9131.011042
23639.981004,-1799.402595,7561.319416,11542.976222
23639.983529,57.427742,-3464.807125,8059.026517
23639.986054,-153.140646,-1473.978722,8901.300072
23639.988579,-650.847747,5225.924558,11121.839445
23639.991104,-2297.109696,-2928.814862,8365.307810
23639.993629,114.855485,-612.562586,9169.296203
23639.996154,-497.707101,4249.652938,10892.128475
23639.998679,-38.285162,-191.425808,9226.723946
23640.001204,-1071.984525,-1569.691626,8690.731683
23640.003729,19.142581,478.564520,9552.147819
23640.006254,-669.990328,2565.105827,10183.852986
23640.008779,-1473.978722,-555.134843,9131.011042
23640.011304,-1244.267752,-76.570323,9265.009107
23640.013829,382.851616,3177.668413,10375.278794
23640.016354,-114.855485,708.275490,9609.575562
23640.018879,-210.568389,-1052.841944,8709.874264
23640.021404,-191.425808,2928.814862,10222.138147
23640.023929,-3005.385186,1110.269686,9781.858789
23640.026454,1703.689691,-1531.406464,9131.011042
23640.028979,-2545.963246,2928.814862,10145.567824
23640.031504,-210.568389,-1091.127106,9092.725880
23640.034029,5245.067139,2354.537438,10528.419440
23640.036554,-3483.949706,2029.113565,10222.138147
23640.039079,2488.535504,-5991.627790,7599.604578
23640.041604,-957.129040,4287.938099,10719.845248
23640.044129,612.562586,1416.550979,10164.710405
23640.046654,803.988394,-5474.778109,8001.598774
23640.049179,1378.265818,3043.670347,10222.138147
23640.051704,-1339.980656,3081.955509,10222.138147
23640.054229,-153.140646,-3771.088418,8307.880067
23640.056754,1148.554848,842.273555,9973.284597
23640.059279,-95.712904,2641.676150,10375.278794
23640.061804,325.423874,-2890.529701,8480.163294
23640.064329,153.140646,-2507.678085,8729.016845
23640.066854,1167.697429,1339.980656,9973.284597
23640.069379,-325.423874,2048.256146,9973.284597
23640.071904,593.420005,-1646.261949,8977.870395
23640.074429,1282.552914,-19.142581,9667.003304
23640.076954,-95.712904,1435.693560,10068.997501
23640.079479,382.851616,-2105.683888,9035.298138
23640.082004,-95.712904,-1014.556782,9360.722011
23640.084537,1244.267752,2967.100024,10375.278794
23640.087070,-1014.556782,-57.427742,9341.579430
23640.089603,2316.252277,-803.988394,9073.583299
23640.092135,-1607.976787,363.709035,9762.716208
23640.094668,-440.279358,-937.986459,9226.723946
23640.097201,-459.421939,3656.232933,10624.132344
23640.099734,-4575.076811,-2143.969050,8690.731683
23640.102267,3273.381317,-1301.695494,8824.729749
23640.104800,-1607.976787,7178.467800,11370.692995
23640.107333,76.570323,-2258.824534,8461.020714
23640.109866,-287.138712,-2220.539373,8767.302006
23640.112398,-574.277424,5034.498750,11026.126541
23640.114931,-2335.394858,-1952.543242,8709.874264
23640.117464,19.142581,-1339.980656,8901.300072
23640.119997,-593.420005,4115.654872,10700.702667
23640.122530,-76.570323,784.845813,9533.005238
23640.125063,-689.132909,-1799.402595,8729.016845
23640.127596,-516.849682,-803.988394,8977.870395
23640.130129,-516.849682,2813.959378,10126.425243
23640.132661,-2277.967115,669.990328,9552.147819
23640.135194,-1052.841944,-555.134843,9111.868461
23640.137727,401.994197,2182.254211,10088.140082
23640.140260,708.275490,1607.976787,9820.143950
23640.142793,-1225.125171,-172.283227,9016.155557
23640.145326,-1205.982590,-191.425808,9379.864592
23640.147859,-3503.092286,2105.683888,9839.286531
23640.150392,382.851616,-2220.539373,8843.872330
23640.152924,1493.121302,3330.809059,10279.565890
23640.155457,-2909.672282,-555.134843,9303.294269
23640.157990,3311.666478,-5417.350366,8116.454259
23640.160523,1627.119368,4402.793584,10968.698798
23640.163056,-2124.826469,-287.138712,9322.436850
23640.165589,-210.568389,-5264.209720,7676.174901
23640.168122,957.129040,4460.221326,11255.837510
23640.170655,1033.699363,1665.404530,10222.138147
23640.173187,325.423874,-3847.658741,8135.596840
23640.175720,1856.830338,4192.225195,10738.987829
23640.178253,-1397.408398,1454.836141,10030.712339
23640.180786,593.420005,-4536.791650,8059.026517
23640.183319,459.421939,1301.695494,9915.856854
23640.185858,363.709035,3349.951640,10566.704602
23640.188397,-267.996131,-2584.248408,9934.999435
23640.190937,-19.142581,-2871.387120,8518.448456
23640.193476,1129.412267,1588.834206,9877.571693
23640.196015,-172.283227,1531.406464,9896.714274
23640.198554,95.712904,-2928.814862,8729.016845
23640.201094,918.843878,401.994197,9954.142016
23640.203633,248.853550,555.134843,9992.427178
23640.206172,1148.554848,-76.570323,9456.434915
23640.208712,-38.285162,287.138712,9590.432981
23640.211251,1071.984525,2009.970984,10030.712339
23640.213790,191.425808,-1722.832272,9150.153622
23640.216329,3273.381317,2622.533570,10336.993632
23640.218869,-5474.778109,1091.127106,9571.290400
23640.221408,-2220.539373,-4632.504554,8116.454259
23640.223947,2526.820666,2660.818731,10107.282662
23640.226486,-1914.258080,6470.192310,11236.694930
23640.229026,976.271621,-4823.930362,7676.174901
23640.231565,-95.712904,976.271621,9571.290400
23640.234104,-210.568389,4709.074877,11006.983960
23640.236643,-2220.539373,-4287.938099,8097.311678
23640.239183,574.277424,823.130974,9647.860723
23640.241722,-1320.838075,4479.363907,10662.417506
23640.244261,-38.285162,-1435.693560,8652.446522
23640.246800,-631.705166,-880.558717,8958.727814
23640.249340,401.994197,3426.521963,10604.989763
23640.251879,-1091.127106,1148.554848,10222.138147
23640.254418,-2335.394858,-727.418070,8997.012976
23640.256957,459.421939,593.420005,9609.575562
23640.259497,-153.140646,3445.664544,10528.419440
23640.262036,325.423874,-937.986459,8824.729749
23640.264575,-325.423874,937.986459,9437.292334
23640.267114,-2526.820666,1665.404530,10030.712339
23640.269654,-2909.672282,-267.996131,9111.868461
23640.272193,-1110.269686,-1665.404530,8748.159426
23640.274732,2718.246474,4383.651003,10681.560086
23640.277272,-4287.938099,-95.712904,9169.296203
23640.279811,5149.354235,-4843.072942,8327.022648
23640.282350,727.418070,6967.899411,12002.398162
23640.284889,-3369.094221,4785.645200,11064.411702
23640.287434,-287.138712,-6738.188442,7331.608446
23640.289979,1837.687757,1512.263883,10241.280728
23640.292524,1741.974853,5666.203917,11370.692995
23640.295069,-516.849682,-4728.217458,7810.172966
23640.297614,2488.535504,1205.982590,9877.571693
23640.300159,-1205.982590,4211.367776,10987.841379
23640.302704,-0.000000,-4402.793584,8001.598774
23640.305249,38.285162,-1339.980656,8939.585234
23640.307794,1550.549045,4307.080680,11045.269122
23640.310339,-114.855485,-363.709035,9686.145885
23640.312884,535.992262,-2488.535504,8748.159426
23640.315428,1569.691626,2182.254211,9418.149754
23640.317973,-95.712904,2794.816797,10336.993632
23640.320518,-191.425808,-1914.258080,8958.727814
23640.323063,2565.105827,-1741.974853,9379.864592
23640.325608,-1952.543242,3081.955509,10490.134278
23640.328153,-344.566454,-2411.965181,8595.018779
23640.330698,-574.277424,248.853550,9303.294269
23640.333243,2584.248408,2124.826469,10202.995566
23640.335788,-2603.390989,114.855485,9360.722011
23640.338333,-1129.412267,-3541.377448,8269.594906
23640.340878,1225.125171,5953.342629,11466.405899
23640.343423,-6163.911018,-1033.699363,9035.298138
23640.345968,2545.963246,-5225.924558,7408.178770
23640.348513,-133.998066,2622.533570,10030.712339
23640.351057,-937.986459,7331.608446,11676.974288
23640.353602,-535.992262,-5111.069074,7791.030386
23640.356147,937.986459,-325.423874,9437.292334
23640.358692,-2354.537438,5647.061336,11179.267187
23640.361237,-2277.967115,-4058.227130,8039.883936
23640.363782,306.281293,-421.136778,9054.440718
23640.366327,-880.558717,5206.781978,11026.126541
23640.368872,-842.273555,-765.703232,9092.725880
23640.371417,-1071.984525,-1416.550979,8920.442653
23640.373962,-535.992262,3062.812928,10183.852986
23640.376507,-2660.818731,937.986459,9379.864592
23640.379052,-976.271621,-1493.121302,8977.870395
23640.381597,459.421939,-325.423874,9245.866526
23640.384142,-1148.554848,4326.223261,10509.276859
23640.386686,-1895.115499,-2086.541307,8671.589102
23640.389236,-2258.824534,-172.283227,9111.868461
23640.391785,-555.134843,1282.552914,9896.714274
23640.394334,976.271621,2622.533570,10107.282662
23640.396884,-2794.816797,-2182.254211,8556.733618
23640.399433,6336.194245,-57.427742,9896.714274
23640.401982,-1550.549045,5704.489078,11581.261384
23640.404532,440.279358,-7140.182638,7255.038123
23640.407081,306.281293,-784.845813,9111.868461
23640.409630,-210.568389,6508.477472,8767.302006
23640.412180,708.275490,2431.107762,10394.421374
23640.414729,669.990328,-5034.498750,7791.030386
23640.417278,1799.402595,4632.504554,10815.558152
23640.419828,-2086.541307,1550.549045,10068.997501
23640.422377,746.560651,-5417.350366,7771.887805
23640.424926,172.283227,2048.256146,10049.854920
23640.427476,-325.423874,2641.676150,10394.421374
23640.430025,133.998066,-3292.523898,8518.448456
23640.432574,1282.552914,669.990328,9820.143950
23640.435124,-382.851616,2163.111630,10068.997501
23640.437673,-516.849682,-2201.396792,8690.731683
23640.440222,823.130974,-210.568389,9647.860723
23640.442772,2277.967115,1110.269686,10375.278794
23640.445321,-1071.984525,1761.117434,10145.567824
23640.447870,-95.712904,-3024.527766,8556.733618
23640.450420,-114.855485,2067.398726,9992.427178
23640.452969,1684.547110,650.847747,9992.427178
23640.455518,440.279358,1607.976787,9801.001370
23640.458068,-4555.934230,-2105.683888,8575.876198
23640.460617,3503.092286,995.414202,9896.714274
23640.463166,-5513.063270,4326.223261,10547.562021
23640.465716,-516.849682,-5340.780043,7350.751027
23640.468265,-497.707101,3349.951640,10336.993632
23640.470814,-957.129040,6010.770371,11179.267187
23640.473364,-153.140646,-4977.071008,9303.294269
23640.475913,76.570323,-4498.506488,8116.454259
23640.478462,-976.271621,5513.063270,11179.267187
23640.481012,-2871.387120,191.425808,9494.720077
23640.483561,899.701298,-3024.527766,8250.452325
23640.486110,114.855485,4785.645200,10911.271056
23640.488660,-918.843878,2277.967115,10126.425243
23640.491189,-1186.840010,-2890.529701,8403.592971
23640.493719,-842.273555,2565.105827,9820.143950
23640.496249,-1320.838075,1684.547110,9801.001370
23640.498779,593.420005,-1282.552914,8977.870395
23640.501308,-650.847747,1627.119368,9896.714274
23640.503838,19.142581,2335.394858,10030.712339
23640.506368,-2622.533570,899.701298,9590.432981
23640.508898,1473.978722,287.138712,9494.720077
23640.511427,-2718.246474,2335.394858,9973.284597
23640.513957,1990.828403,-2239.681954,8652.446522
23640.516487,2603.390989,4651.647134,10892.128475
23640.519017,-2890.529701,-2335.394858,8939.585234
23640.521546,3215.953574,-4039.084549,8441.878133
23640.524076,-2105.683888,5915.057467,11504.691061
23640.526606,-440.279358,-2163.111630,8652.446522
23640.529136,1091.127106,-3962.514226,8365.307810
23640.531665,2316.252277,6221.338760,11523.833642
23640.534195,-1531.406464,-727.418070,9188.438784
23640.536725,1818.545176,-3120.240670,7963.313613
23640.539255,1473.978722,555.134843,9954.142016
23640.541784,-114.855485,3139.383251,10719.845248
23640.544314,76.570323,-2813.959378,8575.876198
23640.546844,1091.127106,-727.418070,9341.579430
23640.549374,1110.269686,2756.531635,10662.417506
23640.551903,-133.998066,-1244.267752,9016.155557
23640.554433,497.707101,-631.705166,9150.153622
23640.556963,-229.710970,2163.111630,10222.138147
23640.559493,2143.969050,-1225.125171,9418.149754
23640.562022,-689.132909,-1473.978722,9016.155557
23640.564552,593.420005,421.136778,9609.575562
23640.567082,-1627.119368,1071.984525,9781.858789
23640.569612,2392.822600,-899.701298,9437.292334
23640.572141,-1167.697429,2316.252277,9915.856854
23640.574671,-3464.807125,-2928.814862,8250.452325
23640.577201,2718.246474,2928.814862,10375.278794
23640.579731,-5781.059402,2565.105827,10145.567824
23640.582260,976.271621,-5819.344563,7312.465866
23640.584790,-1129.412267,5589.633594,10930.413637
23640.587320,-1148.554848,4000.799387,10566.704602
23640.589850,-631.705166,-5532.205851,7714.460062
23640.592386,1550.549045,3062.812928,10470.991698
23640.594923,-3617.947771,3139.383251,10336.993632
23640.597460,-421.136778,-4843.072942,7791.030386
23640.599997,172.283227,3081.955509,8633.303941
23640.602534,-669.990328,5455.635528,11006.983960
23640.605070,-593.420005,689.132909,9513.862658
23640.607607,-1110.269686,-1914.258080,8709.874264
23640.610144,-957.129040,3503.092286,10241.280728
23640.612681,-1588.834206,-497.707101,9169.296203
23640.615218,1244.267752,-650.847747,9150.153622
23640.617755,-2143.969050,3120.240670,10260.423309
23640.620292,574.277424,-95.712904,9494.720077
23640.622828,-1684.547110,19.142581,9322.436850
23640.625365,1359.123237,3005.385186,10451.849117
23640.627902,-3675.375514,650.847747,9399.007173
23640.630439,2947.957443,-2469.392923,8614.161360
23640.632976,5647.061336,3847.658741,10911.271056
23640.635513,-3656.232933,2986.242605,10662.417506
23640.638049,2737.389054,-8422.735552,7121.040058
23640.640586,-38.285162,4287.938099,10892.128475
23640.643123,-727.418070,2909.672282,10298.708470
23640.645660,95.712904,-6757.331022,7255.038123
23640.648197,2297.109696,3579.662610,10490.134278
23640.650734,-1512.263883,4096.512291,10643.274925
23640.653271,535.992262,-5206.781978,7925.028451
23640.655807,1607.976787,1856.830338,10413.563955
23640.658344,133.998066,2871.387120,10604.989763
23640.660881,631.705166,-3196.810994,8422.735552
23640.663418,995.414202,-57.427742,8824.729749
23640.665955,1703.689691,1684.547110,10336.993632
23640.668492,-555.134843,995.414202,9724.431046
23640.671028,-133.998066,-1435.693560,8958.727814
23640.673565,440.279358,631.705166,9820.143950
23640.676102,1684.547110,-401.994197,9762.716208
23640.678639,1167.697429,631.705166,9686.145885
23640.681176,19.142581,-95.712904,9590.432981
23640.683713,-76.570323,861.416136,9762.716208
23640.686250,842.273555,-1225.125171,9418.149754
23640.688786,2086.541307,3560.520029,10356.136213
23640.691323,-5359.922624,-669.990328,8824.729749
23640.693866,3407.379382,-2431.107762,8824.729749
23640.696408,1225.125171,5264.209720,11179.267187
23640.698951,-2086.541307,4421.936165,10624.132344
23640.701493,727.418070,-5704.489078,7255.038123
23640.704036,172.283227,3292.523898,10356.136213
23640.706578,-689.132909,3905.086483,10662.417506
23640.709121,-995.414202,-5838.487144,7657.032320
23640.711664,823.130974,3330.809059,10547.562021
23640.714206,-3464.807125,3694.518094,10432.706536
23640.716749,918.843878,-3694.518094,8039.883936
23640.719291,-267.996131,2335.394858,9992.427178
23640.721834,-1186.840010,3503.092286,10451.849117
23640.724376,-2009.970984,-2220.539373,8537.591037
23640.726919,344.566454,1607.976787,8805.587168
23640.729461,746.560651,3656.232933,10566.704602
23640.732004,-1186.840010,555.134843,9456.434915
23640.734546,669.990328,-689.132909,9169.296203
23640.737089,-1550.549045,2660.818731,10317.851051
23640.739631,-937.986459,1454.836141,9609.575562
23640.742174,-3005.385186,-1665.404530,8690.731683
23640.744716,3522.234867,1952.543242,10107.282662
23640.747259,-2718.246474,3905.086483,10547.562021
23640.749801,1110.269686,-8269.594906,6929.614250
23640.752344,3426.521963,3254.238736,10834.700733
23640.754887,-3196.810994,3828.516160,11045.269122
23640.757429,-306.281293,-7886.743290,7082.754896
23640.759972,1588.834206,-4613.361973,8059.026517
23640.762514,2699.103893,7791.030386,11906.685258
23640.765057,-1493.121302,-1014.556782,8977.870395
23640.767599,1722.832272,-4019.941968,8231.309744
23640.770142,-344.566454,4862.215523,11236.694930
23640.772684,-287.138712,-1033.699363,9284.151688
23640.775227,401.994197,-4555.934230,7944.171032
23640.777769,1722.832272,3426.521963,10738.987829
23640.780312,-153.140646,1148.554848,10011.569758
23640.782854,574.277424,-3483.949706,8537.591037
23640.785397,229.710970,2335.394858,10241.280728
23640.787939,-248.853550,1646.261949,10049.854920
23640.790482,-5187.639397,-3981.656806,8863.014910
23640.793024,2086.541307,-1205.982590,9111.868461
23640.795549,-76.570323,3388.236802,10738.987829
23640.798074,267.996131,-401.994197,9418.149754
23640.800599,248.853550,-3158.525832,8729.016845
23640.803124,3330.809059,5455.635528,11045.269122
23640.805649,-5704.489078,1014.556782,9379.864592
23640.808174,2029.113565,-5895.914886,7599.604578
23640.810699,-574.277424,9054.440718,12423.534939
23640.813224,-2967.100024,1091.127106,9571.290400
23640.815749,1339.980656,-6106.483275,7178.467800
23640.818273,535.992262,7465.606512,11657.831707
23640.820798,-1282.552914,1359.123237,9915.856854
23640.823323,-2124.826469,-5493.920690,7829.315547
23640.825848,1856.830338,823.130974,9667.003304
23640.828373,-2622.533570,6163.911018,11370.692995
23640.830898,-306.281293,-3713.660675,8039.883936
23640.833423,191.425808,-76.570323,9169.296203
23640.835948,-1473.978722,5493.920690,11006.983960
23640.838473,-1780.260014,-1761.117434,8748.159426
23640.840998,325.423874,-191.425808,9207.581365
23640.843523,95.712904,3043.670347,10356.136213
23640.846047,-1550.549045,-38.285162,9169.296203
23640.848572,133.998066,-823.130974,9226.723946
23640.851097,-1454.836141,3024.527766,10298.708470
23640.853622,803.988394,1091.127106,9934.999435
23640.856147,-1397.408398,2239.681954,9820.143950
23640.858672,191.425808,-3292.523898,8422.735552
23640.861197,5761.916821,4632.504554,11198.409768
23640.863722,-3885.943902,1205.982590,10145.567824
23640.866247,3330.809059,-7829.315547,7293.323285
23640.868772,38.285162,5168.496816,11313.265253
23640.871296,-1320.838075,1914.258080,9934.999435
23640.873821,478.564520,-7159.325219,7197.610381
23640.876346,2526.820666,5225.924558,11045.269122
23640.878871,-1531.406464,2947.957443,10260.423309
23640.881396,1129.412267,-5225.924558,7886.743290
23640.883921,535.992262,2450.250342,10432.706536
23640.886446,-593.420005,3637.090352,10700.702667
23640.888971,-248.853550,-1110.269686,8997.012976
23640.891496,1454.836141,-2143.969050,8920.442653
23640.894021,1205.982590,2871.387120,10738.987829
23640.896553,-1148.554848,-191.425808,9475.577496
23640.899086,210.568389,-1646.261949,8805.587168
23640.901618,2048.256146,1588.834206,10279.565890
23640.904151,-1129.412267,555.134843,9705.288466
23640.906683,574.277424,-3560.520029,8288.737486
23640.909216,-689.132909,2258.824534,10164.710405
23640.911749,1646.261949,918.843878,10088.140082
23640.914281,-2201.396792,-995.414202,9035.298138
23640.916814,-4230.510357,-3445.664544,7944.171032
23640.919346,3598.805190,2316.252277,10183.852986
23640.921879,-5857.629725,5245.067139,10738.987829
23640.924412,-708.275490,-6470.192310,7082.754896
23640.926944,133.998066,3541.377448,10413.563955
23640.929477,-1186.840010,6259.623922,11294.122672
23640.932009,-823.130974,-5206.781978,7733.602643
23640.934542,1091.127106,689.132909,9667.003304
23640.937074,-3081.955509,4249.652938,10662.417506
23640.939607,-631.705166,-4268.795518,7944.171032
23640.942140,823.130974,2833.101958,10298.708470
23640.944672,-2488.535504,3866.801322,10681.560086
23640.947205,38.285162,-3503.092286,8154.739421
23640.949737,1148.554848,-382.851616,9092.725880
23640.952270,-363.709035,4613.361973,10815.558152
23640.954803,-899.701298,-2469.392923,8595.018779
23640.957335,-1301.695494,-57.427742,9207.581365
23640.959868,-133.998066,3751.945837,10662.417506
23640.962400,-1990.828403,-382.851616,9207.581365
23640.964933,1646.261949,382.851616,9437.292334
23640.967465,-2565.105827,3866.801322,10451.849117
23640.969998,1512.263883,-2909.672282,8441.878133
23640.972531,2163.111630,3675.375514,10681.560086
23640.975063,-2507.678085,-1703.689691,9054.440718
23640.977596,3579.662610,-3598.805190,8556.733618
23640.980128,133.998066,2124.826469,10260.423309
23640.982661,-612.562586,2947.957443,10279.565890
23640.985194,-267.996131,-5149.354235,7810.172966
23640.987726,2086.541307,2354.537438,10088.140082
23640.990259,-459.421939,3981.656806,10719.845248
23640.992791,172.283227,-3713.660675,8269.594906
23640.995324,1493.121302,267.996131,9954.142016
23640.997863,248.853550,3177.668413,10930.413637
23641.000402,-57.427742,-2163.111630,8671.589102
23641.002941,1856.830338,-1320.838075,9092.725880
23641.005479,976.271621,2852.244539,10547.562021
23641.008018,-612.562586,-803.988394,9284.151688
23641.010557,-76.570323,-1148.554848,9150.153622
23641.013096,1397.408398,-765.703232,9647.860723
23641.015635,1397.408398,3215.953574,10643.274925
23641.018174,57.427742,-1914.258080,9054.440718
23641.020713,287.138712,-612.562586,9303.294269
23641.023252,1512.263883,957.129040,10183.852986
23641.025790,344.566454,3235.096155,10356.136213
23641.028329,-5206.781978,-3579.662610,7867.600709
23641.030868,3828.516160,593.420005,9686.145885
23641.033407,-5091.926493,7082.754896,11428.120738
23641.035946,-1244.267752,-5761.916821,7331.608446
23641.038485,497.707101,1129.412267,9724.431046
23641.041024,-803.988394,7771.887805,11906.685258
23641.043563,-1033.699363,1761.117434,10030.712339
23641.046102,38.285162,-5493.920690,7810.172966
23641.048640,-382.851616,4613.361973,10872.985894
23641.051179,-2947.957443,1014.556782,9628.718142
23641.053718,708.275490,-2354.537438,8365.307810
23641.056257,-937.986459,3713.660675,10566.704602
23641.058796,-1454.836141,1493.121302,9839.286531
23641.061335,-267.996131,-1895.115499,8537.591037
23641.063874,823.130974,2947.957443,10164.710405
23641.066413,-1052.841944,957.129040,9743.573627
23641.068952,-1320.838075,-727.418070,9073.583299
23641.071490,-535.992262,631.705166,9647.860723
23641.074029,-2431.107762,2182.254211,9705.288466
23641.076568,-2258.824534,-1665.404530,8767.302006
23641.079107,2163.111630,2239.681954,10011.569758
23641.081646,-4345.365842,1627.119368,9781.858789
23641.084185,5034.498750,-4536.791650,8384.450390
23641.086724,1014.556782,4651.647134,11121.839445
23641.089263,-516.849682,-2641.676150,8901.300072
23641.091801,229.710970,-4613.361973,8193.024582
23641.094340,76.570323,6029.912952,11466.405899
23641.096879,-344.566454,-248.853550,9513.862658
23641.099424,995.414202,-3694.518094,8212.167163
23641.101968,1071.984525,5053.641331,10892.128475
23641.104513,-1320.838075,-210.568389,9360.722011
23641.107058,114.855485,-4421.936165,8307.880067
23641.109602,1397.408398,-114.855485,9379.864592
23641.112147,153.140646,3943.371645,10777.272990
23641.114692,784.845813,-3311.666478,8575.876198
23641.117236,1378.265818,19.142581,9590.432981
23641.119781,-823.130974,3426.521963,10681.560086
23641.122326,1129.412267,-2584.248408,8939.585234
23641.124870,-306.281293,-153.140646,9475.577496
23641.127415,650.847747,1110.269686,9915.856854
23641.129960,-746.560651,-1205.982590,9016.155557
23641.132504,2603.390989,57.427742,9705.288466
23641.135049,-2967.100024,1205.982590,9781.858789
23641.137594,57.427742,-2852.244539,8499.305875
23641.140138,2392.822600,1646.261949,9801.001370
23641.142683,-5666.203917,4077.369710,10317.851051
23641.145227,727.418070,-5245.067139,7446.463931
23641.147772,-440.279358,4058.227130,10681.560086
23641.150317,-880.558717,4345.365842,10796.415571
23641.152861,-1339.980656,-4919.643266,7791.030386
23641.155406,-95.712904,1837.687757,9781.858789
23641.157951,-1741.974853,2813.959378,10336.993632
23641.160495,-95.712904,-2794.816797,8403.592971
23641.163040,669.990328,2201.396792,10088.140082
23641.165585,-2201.396792,3292.523898,10470.991698
23641.168129,-1033.699363,-2297.109696,8499.305875
23641.170674,-19.142581,-918.843878,8843.872330
23641.173219,344.566454,3081.955509,10164.710405
23641.175763,-689.132909,689.132909,9571.290400
23641.178308,-1110.269686,-287.138712,9265.009107
23641.180852,-995.414202,937.986459,9762.716208
23641.183397,-2756.531635,1588.834206,9494.720077
23641.185942,248.853550,-1914.258080,8729.016845
23641.188486,1014.556782,4402.793584,10681.560086
23641.191031,-3560.520029,-899.701298,9016.155557
23641.193576,6451.049730,-2182.254211,9016.155557
23641.196120,-918.843878,6068.198114,11638.689126
23641.198665,1339.980656,-6125.625856,7848.458128
23641.201214,861.416136,-1722.832272,7484.749093
23641.203763,669.990328,5168.496816,11198.409768
23641.206313,306.281293,2699.103893,10375.278794
23641.208862,497.707101,-5072.783912,7714.460062
23641.211411,1646.261949,3656.232933,10490.134278
23641.213960,-1397.408398,1914.258080,10202.995566
23641.216509,842.273555,-4460.221326,8231.309744
23641.219059,-114.855485,1282.552914,9934.999435
23641.221608,1033.699363,2009.970984,10088.140082
23641.224157,516.849682,-2048.256146,8958.727814
23641.226706,1014.556782,0.000000,9705.288466
23641.229255,-459.421939,1952.543242,10222.138147
23641.231805,1627.119368,-1091.127106,9360.722011
23641.234354,918.843878,325.423874,9724.431046
23641.236903,995.414202,-95.712904,9724.431046
23641.239452,-344.566454,516.849682,9609.575562
23641.242001,2335.394858,-861.416136,9437.292334
23641.244551,-306.281293,3713.660675,10604.989763
23641.247100,-5034.498750,-3158.525832,8097.311678
23641.249649,3503.092286,669.990328,9513.862658
23641.252198,-5532.205851,6163.911018,10892.128475
23641.254747,-535.992262,-5704.489078,7312.465866
23641.257297,287.138712,2335.394858,10126.425243
23641.259846,-1091.127106,6642.475538,11600.403965
23641.262395,-1473.978722,-4996.213589,7695.317482
23641.264944,-382.851616,172.283227,7982.456194
23641.267493,-555.134843,3924.229064,10643.274925
23641.270043,-1990.828403,516.849682,9456.434915
23641.272592,325.423874,-2239.681954,8422.735552
23641.275141,-1071.984525,3924.229064,10662.417506
23641.277690,-1799.402595,1071.984525,9686.145885
23641.280239,114.855485,-1416.550979,8690.731683
23641.282789,-76.570323,2699.103893,10049.854920
23641.285338,-1301.695494,1148.554848,9686.145885
23641.287887,38.285162,-803.988394,9265.009107
23641.290436,-899.701298,2163.111630,10126.425243
23641.292985,-516.849682,1990.828403,9781.858789
23641.295535,-2507.678085,-1473.978722,8748.159426
23641.298084,2009.970984,-2718.246474,8556.733618
23641.300633,2411.965181,6010.770371,11466.405899
23641.303186,-2775.674216,-3292.523898,8556.733618
23641.305739,3828.516160,-4479.363907,8384.450390
23641.308291,-1435.693560,6929.614250,11964.113000
23641.310844,-1435.693560,-3120.240670,8441.878133
23641.313397,1397.408398,-4039.084549,8173.882002
23641.315950,2737.389054,7561.319416,11868.400096
23641.318502,-880.558717,-1205.982590,9035.298138
23641.321055,1588.834206,-3579.662610,8422.735552
23641.323608,-57.427742,4383.651003,11064.411702
23641.326161,-1339.980656,-669.990328,9379.864592
23641.328713,976.271621,-3751.945837,8154.739421
23641.331266,2488.535504,-172.283227,9494.720077
23641.333819,803.988394,4000.799387,10987.841379
23641.336372,-19.142581,-2297.109696,8882.157491
23641.338925,2182.254211,-1378.265818,9322.436850
23641.341477,-1722.832272,3330.809059,10604.989763
23641.344030,-899.701298,-3101.098090,8614.161360
23641.346583,612.562586,-899.701298,9169.296203
23641.349136,2545.963246,3828.516160,10834.700733
23641.351688,-2852.244539,-1856.830338,8767.302006
23641.354241,1052.841944,-3464.807125,8346.165229
23641.356794,-1454.836141,8595.018779,12136.396227
23641.359347,-4766.502619,-3790.230998,7982.456194
23641.361899,995.414202,-7197.610381,6661.618118
23641.364452,401.994197,5608.776174,11179.267187
23641.367005,-1014.556782,4747.360038,11026.126541
23641.369558,-2048.256146,-6489.334891,7255.038123
23641.372111,-267.996131,2297.109696,9973.284597
23641.374663,-1703.689691,4153.940034,10662.417506
23641.377216,-133.998066,-4039.084549,8059.026517
23641.379769,631.705166,1837.687757,9954.142016
23641.382322,-2009.970984,4613.361973,10892.128475
23641.384874,-1339.980656,-3311.666478,8288.737486
23641.387427,57.427742,1550.549045,9839.286531
23641.389980,-1014.556782,3924.229064,10336.993632
23641.392533,-1033.699363,-1875.972918,8614.161360
23641.395085,727.418070,-1761.117434,8997.012976
23641.397638,-1148.554848,3311.666478,10490.134278
23641.400191,478.564520,1856.830338,9915.856854
23641.402744,-3043.670347,-1435.693560,8671.589102
23641.405300,2852.244539,535.992262,9552.147819
23641.407856,-1091.127106,5168.496816,10930.413637
23641.410412,-478.564520,-7216.752962,7216.752962
23641.412968,4134.797453,612.562586,9992.427178
23641.415524,-2526.820666,5647.061336,11734.402030
23641.418080,-823.130974,-6910.471669,7408.178770
23641.420637,1856.830338,1033.699363,9705.288466
23641.423193,1493.121302,7101.897477,11657.831707
23641.425749,-727.418070,957.129040,9820.143950
23641.428305,1416.550979,-4900.500685,8039.883936
23641.430861,421.136778,3885.943902,10987.841379
23641.433417,-842.273555,1071.984525,10068.997501
23641.435973,95.712904,-4230.510357,7944.171032
23641.438529,2220.539373,2335.394858,10317.851051
23641.441085,421.136778,2086.541307,10356.136213
23641.443641,382.851616,-3043.670347,8575.876198
23641.446198,1837.687757,38.285162,9743.573627
23641.448754,-1454.836141,3120.240670,10490.134278
23641.451310,-746.560651,-3541.377448,8403.592971
23641.453866,497.707101,-382.851616,9303.294269
23641.456422,2756.531635,3330.809059,10164.710405
23641.458978,-976.271621,4613.361973,10911.271056
23641.461534,-5015.356170,-5819.344563,7350.751027
23641.464090,3177.668413,1914.258080,10030.712339
23641.466646,-6144.768437,6604.190376,11026.126541
23641.469202,-459.421939,-7044.469734,6642.475538
23641.471759,1014.556782,3196.810994,10432.706536
23641.474315,-995.414202,7082.754896,11944.970419
23641.476871,-2048.256146,-5857.629725,7523.034254
23641.479427,-689.132909,-57.427742,9131.011042
23641.481983,-1397.408398,5283.352301,11064.411702
23641.484539,248.853550,-2756.531635,8633.303941
23641.487095,650.847747,1320.838075,9839.286531
23641.489651,-918.843878,3656.232933,10681.560086
23641.492207,-1339.980656,363.709035,9533.005238
23641.494763,-459.421939,-1320.838075,8767.302006
23641.497320,-172.283227,2947.957443,10011.569758
23641.499876,-1703.689691,1627.119368,9781.858789
23641.502432,-440.279358,-1722.832272,8958.727814
23641.504988,-2373.680019,2182.254211,9762.716208
23641.507546,784.845813,344.566454,9590.432981
23641.510105,-1416.550979,1684.547110,9839.286531
23641.512663,-421.136778,-2239.681954,8805.587168
23641.515222,5589.633594,3809.373579,10930.413637
23641.517780,-2909.672282,1473.978722,10030.712339
23641.520338,3541.377448,-6929.614250,7676.174901
23641.522897,995.414202,-2239.681954,8977.870395
23641.525455,-1646.261949,6853.043926,11657.831707
23641.528014,-746.560651,-4498.506488,7982.456194
23641.530572,2316.252277,-1071.984525,9054.440718
23641.533131,497.707101,6202.196179,11428.120738
23641.535689,-497.707101,-3120.240670,8652.446522
23641.538247,937.986459,-2526.820666,8920.442653
23641.540806,-57.427742,3924.229064,10738.987829
23641.543364,-172.283227,-957.129040,9150.153622
23641.545923,1493.121302,-2220.539373,8882.157491
23641.548481,1301.695494,2584.248408,10432.706536
23641.551040,918.843878,-76.570323,9686.145885
23641.553598,-1741.974853,-1684.547110,8863.014910
23641.556156,-229.710970,-1914.258080,8882.157491
23641.558715,172.283227,2029.113565,10202.995566
23641.561273,2029.113565,631.705166,9667.003304
23641.563832,-1780.260014,-2143.969050,8595.018779
23641.566390,1780.260014,440.279358,9705.288466
23641.568949,-2986.242605,6106.483275,11370.692995
23641.571507,-3081.955509,-5570.491013,7618.747158
23641.574065,2986.242605,2258.824534,9781.858789
23641.576624,-1741.974853,8135.596840,11753.544611
23641.579182,746.560651,-5895.914886,7618.747158
23641.581741,-153.140646,-478.564520,9226.723946
23641.584299,-727.418070,6355.336826,10758.130410
23641.586858,-2009.970984,2124.826469,10011.569758
23641.589416,210.568389,-3522.234867,8193.024582
23641.591974,784.845813,2086.541307,10126.425243
23641.594533,-401.994197,4058.227130,10738.987829
23641.597091,-2354.537438,-2182.254211,8556.733618
23641.599650,-803.988394,-267.996131,9150.153622
23641.602208,-669.990328,3828.516160,10317.851051
23641.604766,-1263.410333,631.705166,9150.153622
23641.607325,287.138712,-1684.547110,8939.585234
23641.609885,-1205.982590,3369.094221,10394.421374
23641.612446,765.703232,1397.408398,9915.856854
23641.615006,-2335.394858,-497.707101,9111.868461
23641.617567,-1512.263883,-3445.664544,8327.022648
23641.620127,6106.483275,3388.236802,10911.271056
23641.622688,-2105.683888,3464.807125,10719.845248
23641.625249,3081.955509,-7886.743290,7197.610381
23641.627809,535.992262,2794.816797,10719.845248
23641.630370,-2737.389054,4000.799387,10700.702667
23641.632930,-57.427742,-7178.467800,7101.897477
23641.635491,2967.100024,3139.383251,10317.851051
23641.638051,459.421939,4900.500685,11160.124606
23641.640612,765.703232,-5053.641331,8154.739421
23641.643172,516.849682,363.709035,9858.429112
23641.645733,-1052.841944,3637.090352,10719.845248
23641.648293,-95.712904,-3254.238736,9494.720077
23641.650854,1225.125171,-2986.242605,8575.876198
23641.653414,1722.832272,2220.539373,10490.134278
23641.655975,1071.984525,516.849682,9992.427178
23641.658535,-1531.406464,-2220.539373,8709.874264
23641.661096,114.855485,-306.281293,9341.579430
23641.663656,-248.853550,1378.265818,9954.142016
23641.666217,2833.101958,-535.992262,9284.151688
23641.668778,-1818.545176,-440.279358,9150.153622
23641.671338,918.843878,-248.853550,9399.007173
23641.673899,-2679.961312,4977.071008,11064.411702
23641.676459,-3617.947771,-4077.369710,7982.456194
23641.679020,3043.670347,1416.550979,9437.292334
23641.681580,-363.709035,7101.897477,11466.405899
23641.684141,-1205.982590,1588.834206,10107.282662
23641.686701,-1473.978722,-5723.631659,7523.034254
23641.689262,-823.130974,4211.367776,10681.560086
23641.691822,-1799.402595,2277.967115,9992.427178
23641.694383,210.568389,-3254.238736,8212.167163
23641.696943,363.709035,1531.406464,9858.429112
23641.699504,-287.138712,3349.951640,10509.276859
23641.702064,-2143.969050,-1071.984525,8977.870395
23641.704625,-1301.695494,-229.710970,9111.868461
23641.707185,-1052.841944,2871.387120,10011.569758
23641.709746,-555.134843,1339.980656,9475.577496
23641.712308,-535.992262,-344.566454,9322.436850
23641.714870,-1914.258080,803.988394,9379.864592
23641.717432,-2239.681954,-76.570323,9418.149754
23641.719994,1301.695494,1914.258080,9973.284597
23641.722555,-3885.943902,-133.998066,9150.153622
23641.725117,5187.639397,-3292.523898,8767.302006
23641.727679,1263.410333,5551.348432,11428.120738
23641.730241,-191.425808,-3751.945837,8441.878133
23641.732803,746.560651,-3962.514226,8441.878133
23641.735365,-1550.549045,6719.045861,11638.689126
23641.737927,-689.132909,-2297.109696,8671.589102
23641.740489,2029.113565,-2852.244539,8346.165229
23641.743051,1397.408398,5876.772306,11389.835576
23641.745612,-1914.258080,2469.392923,10432.706536
23641.748174,-478.564520,-4555.934230,8020.741355
23641.750736,1014.556782,593.420005,9628.718142
23641.753298,1033.699363,3694.518094,10719.845248
23641.755860,478.564520,-2450.250342,8824.729749
23641.758422,1703.689691,-1454.836141,9284.151688
23641.760984,-459.421939,1722.832272,10202.995566
23641.763546,-746.560651,-765.703232,9207.581365
23641.766108,631.705166,-1033.699363,9475.577496
23641.768669,708.275490,2392.822600,10164.710405
23641.771231,2545.963246,-1531.406464,9207.581365
23641.773793,1359.123237,3024.527766,10336.993632
23641.776355,-5379.065205,2584.248408,10049.854920
23641.778917,19.142581,-4019.941968,8346.165229
23641.781479,-976.271621,6221.338760,11102.696864
23641.784041,-1971.685822,2660.818731,9762.716208
23641.786603,2277.967115,-4498.506488,7905.885870
23641.789165,76.570323,5053.641331,11102.696864
23641.791727,-1550.549045,1799.402595,10049.854920
23641.794288,-2392.822600,-4441.078746,7867.600709
23641.796850,-19.142581,2967.100024,10164.710405
23641.799412,-210.568389,2660.818731,10202.995566
23641.801974,210.568389,-1588.834206,8920.442653
23641.804536,-765.703232,344.566454,9590.432981
23641.807098,-1167.697429,2775.674216,10241.280728
23641.809660,-1722.832272,1780.260014,9609.575562
23641.812222,-344.566454,95.712904,9054.440718
23641.814785,-76.570323,823.130974,9628.718142
23641.817348,-1895.115499,1741.974853,9705.288466
23641.819911,382.851616,-995.414202,9188.438784
23641.822475,-1148.554848,2890.529701,10145.567824
23641.825038,-1761.117434,-2411.965181,8748.159426
23641.827601,6125.625856,2029.113565,10413.563955
23641.830164,-1761.117434,3081.955509,10585.847182
23641.832727,3292.523898,-6451.049730,7714.460062
23641.835291,114.855485,2699.103893,10585.847182
23641.837854,-2699.103893,2718.246474,10298.708470
23641.840417,-861.416136,-3005.385186,8441.878133
23641.842980,2163.111630,-2105.683888,8556.733618
23641.845544,1588.834206,5819.344563,11332.407834
23641.848107,19.142581,-1761.117434,9265.009107
23641.850670,-823.130974,-3235.096155,8614.161360
23641.853233,-325.423874,2143.969050,10145.567824
23641.855796,899.701298,995.414202,9915.856854
23641.858360,976.271621,-1320.838075,9131.011042
23641.860923,1933.400661,-172.283227,9705.288466
23641.863486,267.996131,133.998066,9628.718142
23641.866049,-440.279358,0.000000,9571.290400
23641.868613,-689.132909,-727.418070,9533.005238
23641.871176,363.709035,1014.556782,9705.288466
23641.873739,1282.552914,-1091.127106,9303.294269
23641.876302,3369.094221,3081.955509,10317.851051
23641.878865,-6029.912952,765.703232,9590.432981
23641.881429,1110.269686,-4287.938099,8269.594906
23641.883992,-2622.533570,7848.458128,11619.546546
23641.886555,-2163.111630,325.423874,8997.012976
23641.889118,2545.963246,-3790.230998,8116.454259
23641.891682,306.281293,6987.041992,11772.687192
23641.894245,-1895.115499,-19.142581,9552.147819
23641.896809,-2603.390989,-4536.791650,7848.458128
23641.899373,-57.427742,4058.227130,10528.419440
23641.901938,-535.992262,2182.254211,9954.142016
23641.904502,-248.853550,-440.279358,9188.438784
23641.907066,-1301.695494,-1588.834206,8997.012976
23641.909631,-1071.984525,3292.523898,10394.421374
23641.912195,-2220.539373,1473.978722,9475.577496
23641.914759,19.142581,-631.705166,8901.300072
23641.917324,-19.142581,2048.256146,10049.854920
23641.919888,-1990.828403,1741.974853,9628.718142
23641.922452,-248.853550,-2565.105827,8614.161360
23641.925017,-191.425808,3943.371645,10719.845248
23641.927581,-3790.230998,-1378.265818,8997.012976
23641.930145,6680.760699,-1359.123237,9303.294269
23641.932710,-382.851616,5895.914886,11485.548480
23641.935274,2029.113565,-5934.200048,7829.315547
23641.937838,38.285162,-6125.625856,7829.315547
23641.940403,-842.273555,5704.489078,11428.120738
23641.942967,-746.560651,842.273555,9686.145885
23641.945531,1588.834206,-4383.651003,7829.315547
23641.948096,2067.398726,4326.223261,10853.843314
23641.950660,-210.568389,746.560651,10030.712339
23641.953224,-650.847747,-3445.664544,8518.448456
23641.955789,-803.988394,708.275490,9590.432981
23641.958353,1167.697429,1512.263883,9954.142016
23641.960917,1301.695494,-478.564520,9399.007173
23641.963482,2794.816797,-689.132909,9724.431046
23641.966046,-1607.976787,612.562586,9743.573627
23641.968610,-1378.265818,-727.418070,9418.149754
23641.971175,-325.423874,-1263.410333,9054.440718
23641.973739,3215.953574,1512.263883,10030.712339
23641.976304,-1722.832272,38.285162,9284.151688
23641.978868,1818.545176,-2316.252277,8824.729749
23641.981432,-2469.392923,6470.192310,11600.403965
23641.983997,-4307.080680,-3656.232933,8288.737486
23641.986561,2488.535504,210.568389,8977.870395
23641.989125,-1148.554848,8231.309744,11542.976222
23641.991690,1167.697429,-4077.369710,8116.454259
23641.994254,-0.000000,-1435.693560,9016.155557
23641.996818,-899.701298,6087.340694,11428.120738
23641.999383,-2833.101958,-2411.965181,8690.731683
23642.001948,-38.285162,-3005.385186,8212.167163
23642.004512,650.847747,1301.695494,9667.003304
23642.007077,497.707101,3541.377448,10604.989763
23642.009642,-2258.824534,-803.988394,9016.155557
23642.012206,-1875.972918,-689.132909,9035.298138
23642.014771,-1837.687757,3579.662610,10107.282662
23642.017336,-19.142581,535.992262,9360.722011
23642.019901,-191.425808,-593.420005,9150.153622
23642.022465,1359.123237,3828.516160,10777.272990
23642.025030,-3713.660675,574.277424,9552.147819
23642.027595,1990.828403,-3579.662610,8288.737486
23642.030159,-0.000000,6202.196179,11351.550414
23642.032724,-2507.678085,-4364.508422,10470.991698
23642.035289,3847.658741,-6929.614250,7465.606512
23642.037853,153.140646,4134.797453,11179.267187
23642.040418,-2622.533570,1301.695494,10011.569758
23642.042983,612.562586,-6029.912952,7657.032320
23642.045548,2660.818731,5532.205851,11006.983960
23642.048112,708.275490,1933.400661,9934.999435
23642.050677,1091.127106,-4077.369710,8269.594906
23642.053242,-899.701298,957.129040,10068.997501
23642.055806,-229.710970,1703.689691,10126.425243
23642.058371,-114.855485,-1550.549045,8977.870395
23642.060936,1799.402595,229.710970,9762.716208
23642.063501,2526.820666,1052.841944,10068.997501
23642.066065,-1339.980656,-229.710970,9322.436850
23642.068630,-765.703232,-2335.394858,8690.731683
23642.071195,-555.134843,1186.840010,10183.852986
23642.073759,1110.269686,2067.398726,10202.995566
23642.076324,1091.127106,-3407.379382,8422.735552
23642.078889,4192.225195,3177.668413,10432.706536
23642.081453,-5685.346498,3369.094221,10394.421374
23642.084018,-191.425808,-6508.477472,7637.889739
23642.086583,-1359.123237,7484.749093,11523.833642
23642.089148,-2545.963246,3139.383251,9934.999435
23642.091712,2756.531635,-5608.776174,7369.893608
23642.094277,937.986459,5876.772306,11370.692995
23642.096842,-899.701298,2067.398726,11466.405899
23642.099406,-3273.381317,-2584.248408,8556.733618
23642.101971,-57.427742,-1703.689691,8786.444587
23642.104536,918.843878,4230.510357,10700.702667
23642.107100,631.705166,1359.123237,9877.571693
23642.109665,-2029.113565,-2163.111630,8690.731683
23642.112230,-1282.552914,1512.263883,9801.001370
23642.114794,-2660.818731,3292.523898,9858.429112
23642.117359,-267.996131,-1263.410333,8690.731683
23642.119923,248.853550,823.130974,9590.432981
23642.122488,918.843878,4785.645200,11045.269122
23642.125053,-3617.947771,-2105.683888,8671.589102
23642.127617,2220.539373,-1856.830338,8901.300072
23642.130182,3579.662610,6029.912952,11485.548480
23642.132747,-2794.816797,421.136778,9705.288466
23642.135311,4498.506488,-7044.469734,7369.893608
23642.137876,-19.142581,6297.909083,11830.114934
23642.140441,-2775.674216,-497.707101,9418.149754
23642.143005,1033.699363,-5857.629725,7752.745224
23642.145570,2431.107762,6872.186507,11600.403965
23642.148134,535.992262,497.707101,9456.434915
23642.150699,1416.550979,-4077.369710,8193.024582
23642.153264,-899.701298,2182.254211,10509.276859
23642.155828,-267.996131,1052.841944,10068.997501
23642.158393,-287.138712,-2124.826469,8767.302006
23642.160958,1493.121302,612.562586,9322.436850
23642.163522,3809.373579,1148.554848,10336.993632
23642.166087,-1359.123237,287.138712,9513.862658
23642.168652,-1282.552914,-3196.810994,8537.591037
23642.171216,-842.273555,1148.554848,9973.284597
23642.173781,1301.695494,2660.818731,10413.563955
23642.176345,-38.285162,-3675.375514,8250.452325
23642.178910,4441.078746,1129.412267,9743.573627
23642.181475,-4441.078746,6355.336826,11351.550414
23642.184039,-2660.818731,-6967.899411,7369.893608
23642.186604,516.849682,4843.072942,10758.130410
23642.189169,-2316.252277,6853.043926,11121.839445
23642.191733,2373.680019,-6374.479406,7178.467800
23642.194298,-306.281293,-4479.363907,8039.883936
23642.196862,-574.277424,6087.340694,11408.978157
23642.199427,-2756.531635,-76.570323,9399.007173
23642.201992,-440.279358,-3005.385186,8288.737486
23642.204556,727.418070,2526.820666,10145.567824
23642.207121,1435.693560,2986.242605,10432.706536
23642.209686,-2048.256146,-995.414202,9035.298138
23642.212251,-2143.969050,-57.427742,9245.866526
23642.214815,-1722.832272,3617.947771,10088.140082
23642.217380,-803.988394,114.855485,9169.296203
23642.219945,-1301.695494,-880.558717,8786.444587
23642.222509,2163.111630,3120.240670,10681.560086
23642.225074,-478.564520,5532.205851,11217.552349
23642.227639,-4019.941968,-3771.088418,8231.309744
23642.230204,6144.768437,-1473.978722,9188.438784
23642.232768,-229.710970,7905.885870,12136.396227
23642.235333,2048.256146,-7159.325219,7331.608446
23642.237898,1914.258080,-1875.972918,9169.296203
23642.240462,-3235.096155,6833.901346,11696.116869
23642.243027,-1378.265818,-6163.911018,7618.747158
23642.245592,2813.959378,248.853550,9303.294269
23642.248157,1799.402595,6699.903280,11542.976222
23642.250721,1033.699363,-3311.666478,8575.876198
23642.253286,-133.998066,-2431.107762,8997.012976
23642.255851,-555.134843,3024.527766,10585.847182
23642.258415,1052.841944,1780.260014,10164.710405
23642.260980,1378.265818,-1397.408398,9111.868461
23642.263545,2124.826469,-1493.121302,9399.007173
23642.266110,593.420005,3005.385186,10509.276859
23642.268674,-1110.269686,-516.849682,9475.577496
23642.271239,-899.701298,-2086.541307,8748.159426
23642.273804,3771.088418,1167.697429,10222.138147
23642.276368,-248.853550,4268.795518,10604.989763
23642.278933,-3847.658741,-5704.489078,7427.321350
23642.281498,2124.826469,2794.816797,10413.563955
23642.284063,-7216.752962,5264.209720,10815.558152
23642.286627,76.570323,-6967.899411,6585.047795
23642.289192,2794.816797,-3215.953574,8231.309744
23642.291757,287.138712,8767.302006,12327.822035
23642.294322,-1933.400661,-1895.115499,9016.155557
23642.296886,-2488.535504,-4249.652938,8020.741355
23642.299451,-1110.269686,4230.510357,10624.132344
23642.302016,95.712904,2009.970984,10088.140082
23642.304580,-344.566454,-1818.545176,8652.446522
23642.307125,-421.136778,382.851616,9533.005238
23642.309670,-1014.556782,3139.383251,10375.278794
23642.312215,-3081.955509,631.705166,9169.296203
23642.314760,-574.277424,-1186.840010,8843.872330
23642.317304,-19.142581,3560.520029,10375.278794
23642.319849,1205.982590,2545.963246,10241.280728
23642.322394,-2603.390989,344.566454,9533.005238
23642.324939,421.136778,-4383.651003,8193.024582
23642.327484,2775.674216,6623.332957,11734.402030
23642.330029,-2756.531635,-1454.836141,9054.440718
23642.332573,4785.645200,-6259.623922,7599.604578
23642.335118,-38.285162,6967.899411,11964.113000
23642.337663,-2545.963246,-1244.267752,9207.581365
23642.340208,1435.693560,-5570.491013,7905.885870
23642.342753,1895.115499,7618.747158,11849.257515
23642.345297,248.853550,-344.566454,9150.153622
23642.347842,1454.836141,-4173.082614,7963.313613
23642.350387,-306.281293,3273.381317,10815.558152
23642.352932,-287.138712,3407.379382,10777.272990
23642.355477,-267.996131,-1301.695494,9131.011042
23642.358022,1512.263883,-1512.263883,9226.723946
23642.360566,2947.957443,1052.841944,10202.995566
23642.363111,497.707101,1588.834206,9896.714274
23642.365656,-727.418070,-2105.683888,9035.298138
23642.368201,-1607.976787,114.855485,9590.432981
23642.370746,2660.818731,1435.693560,10202.995566
23642.373290,-823.130974,1014.556782,9513.862658
23642.375835,-1473.978722,-4173.082614,7982.456194
23642.378380,765.703232,5666.203917,11294.122672
23642.380925,-6833.901346,669.990328,9571.290400
23642.383470,1607.976787,-5283.352301,7235.895542
23642.386015,1799.402595,1091.127106,9475.577496
23642.388559,-957.129040,7810.172966,11868.400096
23642.391104,-1416.550979,-5053.641331,7944.171032
23642.393649,-1454.836141,-1493.121302,8882.157491
23642.396194,-880.558717,4881.358104,10911.271056
23642.398739,76.570323,-153.140646,9341.579430
23642.401283,-727.418070,-1646.261949,8652.446522
23642.403828,95.712904,1665.404530,9954.142016
23642.406373,-1320.838075,2794.816797,10164.710405
23642.408921,-2718.246474,-306.281293,8958.727814
23642.411469,-287.138712,-248.853550,9188.438784
23642.414016,-1014.556782,4077.369710,10394.421374
23642.416564,1607.976787,2048.256146,10145.567824
23642.419112,-1588.834206,306.281293,9513.862658
23642.421660,-650.847747,-3235.096155,8690.731683
23642.424208,3962.514226,5130.211654,11294.122672
23642.426755,-2756.531635,-76.570323,9437.292334
23642.429303,4364.508422,-6278.766502,7618.747158
23642.431851,19.142581,5589.633594,11523.833642
23642.434399,-2258.824534,-38.285162,9590.432981
23642.436946,1569.691626,-5838.487144,7848.458128
23642.439494,2124.826469,6833.901346,11676.974288
23642.442042,114.855485,612.562586,9552.147819
23642.444590,1052.841944,-4441.078746,7867.600709
23642.447137,57.427742,2699.103893,10700.702667
23642.449685,-38.285162,3637.090352,10911.271056
23642.452233,-114.855485,-880.558717,9303.294269
23642.454781,1952.543242,-2124.826469,9111.868461
23642.457328,1282.552914,1110.269686,10068.997501
23642.459876,440.279358,650.847747,9667.003304
23642.462424,-38.285162,-1493.121302,9265.009107
23642.464972,-593.420005,1397.408398,9992.427178
23642.467520,2220.539373,-440.279358,9724.431046
23642.470067,1895.115499,2756.531635,10222.138147
23642.472615,-4689.932296,-2067.398726,8518.448456
23642.475163,2220.539373,-459.421939,9379.864592
23642.477711,-6068.198114,5819.344563,10949.556218
23642.480258,-3005.385186,1627.119368,9418.149754
23642.482806,2660.818731,-4058.227130,7944.171032
23642.485354,229.710970,6278.766502,11389.835576
23642.487902,-1569.691626,478.564520,9801.001370
23642.490449,-2775.674216,-4307.080680,7886.743290
23642.492997,-957.129040,2699.103893,10068.997501
23642.495545,-76.570323,2756.531635,10336.993632
23642.498093,-287.138712,-727.418070,9207.581365
23642.500641,-1052.841944,-440.279358,9284.151688
23642.503188,-1091.127106,2928.814862,10145.567824
23642.505736,-1799.402595,1741.974853,9552.147819
23642.508284,-937.986459,-1397.408398,8786.444587
23642.510834,-1971.685822,2603.390989,9360.722011
23642.513384,-1416.550979,708.275490,9820.143950
23642.515934,1722.832272,1378.265818,10049.854920
23642.518484,-4575.076811,-267.996131,9226.723946
23642.521033,4211.367776,-3732.803256,8518.448456
23642.523583,1665.404530,5685.346498,11332.407834
23642.526133,555.134843,-3215.953574,8575.876198
23642.528683,1607.976787,-4345.365842,8461.020714
23642.531233,-2660.818731,6355.336826,11504.691061
23642.533783,-1225.125171,-2813.959378,8729.016845
23642.536333,2469.392923,-2297.109696,8537.591037
23642.538883,2239.681954,6125.625856,11313.265253
23642.541433,-38.285162,-1263.410333,9131.011042
23642.543983,-516.849682,-3943.371645,8480.163294
23642.546533,210.568389,-1148.554848,9073.583299
23642.549083,1703.689691,2813.959378,10413.563955
23642.551633,1301.695494,-1895.115499,9150.153622
23642.554182,1339.980656,-344.566454,9533.005238
23642.556732,-803.988394,1818.545176,10126.425243
23642.559282,-1263.410333,-1875.972918,8805.587168
23642.561832,2718.246474,-421.136778,9379.864592
23642.564382,-1684.547110,2067.398726,10030.712339
23642.566932,784.845813,-3215.953574,8556.733618
23642.569482,-1071.984525,5206.781978,11045.269122
23642.572032,-4689.932296,-1091.127106,8977.870395
23642.574582,2067.398726,-957.129040,7561.319416
23642.577132,497.707101,4594.219392,10470.991698
23642.579682,-1091.127106,3292.523898,10336.993632
23642.582232,-1052.841944,-5091.926493,7886.743290
23642.584782,-976.271621,2335.394858,10241.280728
23642.587331,-976.271621,2545.963246,10279.565890
23642.589881,-210.568389,-1971.685822,8595.018779
23642.592431,-382.851616,76.570323,9207.581365
23642.594981,382.851616,2718.246474,10298.708470
23642.597531,-2163.111630,1052.841944,9552.147819
23642.600081,-1971.685822,-76.570323,9150.153622
23642.602631,-593.420005,1531.406464,9724.431046
23642.605181,-1799.402595,2411.965181,9686.145885
23642.607731,689.132909,-1148.554848,9016.155557
23642.610281,153.140646,2124.826469,10088.140082
23642.612833,-3235.096155,-995.414202,9284.151688
23642.615385,5608.776174,-19.142581,9820.143950
23642.617937,-1244.267752,4077.369710,10815.558152
23642.620489,3177.668413,-5532.205851,7733.602643
23642.623041,1473.978722,803.988394,9973.284597
23642.625593,-2967.100024,3637.090352,10700.702667
23642.628145,555.134843,-5876.772306,7829.315547
23642.630697,2431.107762,3637.090352,10509.276859
23642.633249,957.129040,3713.660675,10547.562021
23642.635801,823.130974,-3656.232933,8212.167163
23642.638353,-1320.838075,-555.134843,8863.014910
23642.640905,-133.998066,765.703232,9628.718142
23642.643457,1033.699363,497.707101,9724.431046
23642.646009,1990.828403,-1416.550979,9379.864592
23642.648560,957.129040,995.414202,9992.427178
23642.651112,-727.418070,401.994197,9667.003304
23642.653664,-669.990328,-1875.972918,8843.872330
23642.656216,1875.972918,1071.984525,9743.573627
23642.658768,-1933.400661,344.566454,9552.147819
23642.661320,2392.822600,-2584.248408,8671.589102
23642.663872,-1914.258080,6106.483275,11313.265253
23642.666424,-3675.375514,-2794.816797,8518.448456
23642.668976,1588.834206,746.560651,9341.579430
23642.671528,-76.570323,6183.053598,10911.271056
23642.674080,-976.271621,1761.117434,9762.716208
23642.676632,-669.990328,-4977.071008,7886.743290
23642.679184,-478.564520,3598.805190,10700.702667
23642.681736,-1263.410333,2067.398726,10202.995566
23642.684288,-784.845813,-2794.816797,8307.880067
23642.686840,-38.285162,669.990328,9399.007173
23642.689392,421.136778,3407.379382,10528.419440
23642.691944,-2431.107762,459.421939,9360.722011
23642.694496,-1397.408398,-248.853550,9207.581365
23642.697048,-727.418070,2756.531635,10126.425243
23642.699600,-2488.535504,1339.980656,9265.009107
23642.702152,2067.398726,-1473.978722,8346.165229
23642.704704,1148.554848,2909.672282,10394.421374
23642.707256,-4613.361973,516.849682,9705.288466
23642.709808,5876.772306,-3388.236802,8843.872330
23642.712360,210.568389,5570.491013,11313.265253
23642.714913,1895.115499,-4039.084549,8212.167163
23642.717466,1550.549045,-2431.107762,8901.300072
23642.720020,-2641.676150,5206.781978,11121.839445
23642.722573,-210.568389,-4479.363907,8288.737486
23642.725127,2431.107762,880.558717,9686.145885
23642.727680,1569.691626,4881.358104,10987.841379
23642.730234,1397.408398,-2316.252277,8863.014910
23642.732787,-669.990328,-1416.550979,9226.723946
23642.735340,-133.998066,248.853550,9686.145885
23642.737894,1627.119368,401.994197,9801.001370
23642.740447,803.988394,-1378.265818,9169.296203
23642.743001,1186.840010,210.568389,9801.001370
23642.745554,133.998066,1512.263883,10164.710405
23642.748107,-1493.121302,-1014.556782,9016.155557
23642.750661,3158.525832,-1493.121302,9245.866526
23642.753214,-1282.552914,4326.223261,10662.417506
23642.755768,-2488.535504,-4536.791650,7963.313613
23642.758321,1550.549045,2909.672282,10375.278794
23642.760875,-6183.053598,3235.096155,10336.993632
23642.763428,1167.697429,-4632.504554,7465.606512
23642.765981,-210.568389,5513.063270,9092.725880
23642.768535,-669.990328,6987.041992,11657.831707
23642.771088,-1569.691626,-3330.809059,8537.591037
23642.773642,-1703.689691,-1952.543242,8824.729749
23642.776195,-191.425808,4019.941968,10700.702667
23642.778749,-612.562586,535.992262,9513.862658
23642.781302,-1052.841944,-1971.685822,8556.733618
23642.783855,-191.425808,1646.261949,9896.714274
23642.786409,-2335.394858,3081.955509,10049.854920
23642.788962,-1014.556782,-918.843878,8977.870395
23642.791516,-650.847747,1129.412267,9609.575562
23642.794069,-1359.123237,4096.512291,10164.710405
23642.796622,-1454.836141,-3196.810994,8231.309744
23642.799176,2526.820666,-3369.094221,8499.305875
23642.801729,-1339.980656,5819.344563,11370.692995
23642.804283,-995.414202,-5551.348432,7810.172966
23642.806836,4019.941968,-1416.550979,9054.440718
23642.809390,-1167.697429,5379.065205,11294.122672
23642.811943,133.998066,-4977.071008,8307.880067
23642.814496,287.138712,995.414202,9973.284597
23642.817051,-478.564520,4421.936165,10815.558152
23642.819605,765.703232,-4268.795518,7963.313613
23642.822160,1569.691626,1588.834206,9743.573627
23642.824714,-344.566454,2277.967115,10375.278794
23642.827268,-38.285162,-1952.543242,9035.298138
23642.829823,-57.427742,-1071.984525,8997.012976
23642.832377,3235.096155,-76.570323,9858.429112
23642.834931,267.996131,1780.260014,10107.282662
23642.837486,-306.281293,-1780.260014,8882.157491
23642.840040,-19.142581,-1301.695494,9303.294269
23642.842595,1186.840010,3790.230998,10662.417506
23642.845149,-1627.119368,-2584.248408,8575.876198
23642.847703,4881.358104,-1225.125171,9092.725880
23642.850258,-4096.512291,6891.329088,11523.833642
23642.852812,-1071.984525,-5532.205851,7944.171032
23642.855366,-153.140646,3675.375514,10375.278794
23642.857921,-2947.957443,6604.190376,11064.411702
23642.860475,1914.258080,-5283.352301,7503.891674
23642.863030,-95.712904,-3311.666478,8269.594906
23642.865584,-133.998066,4977.071008,11198.409768
23642.868138,-2143.969050,210.568389,9724.431046
23642.870693,-1225.125171,-2794.816797,8288.737486
23642.873247,344.566454,1914.258080,9781.858789
23642.875801,401.994197,3330.809059,10451.849117
23642.878356,-2277.967115,-708.275490,9073.583299
23642.880910,-191.425808,650.847747,9533.005238
23642.883465,-1205.982590,3790.230998,10375.278794
23642.886019,-2794.816797,-631.705166,8614.161360
23642.888573,1435.693560,-1416.550979,8901.300072
23642.891128,-248.853550,5934.200048,11332.407834
23642.893682,-2297.109696,-3905.086483,9973.284597
23642.896236,4632.504554,-7159.325219,7484.749093
23642.898791,2067.398726,6163.911018,11581.261384
23642.901345,-153.140646,-1339.980656,9092.725880
23642.903900,1416.550979,-5991.627790,7676.174901
23642.906454,-1761.117434,6297.909083,11428.120738
23642.909008,-1205.982590,-1875.972918,9111.868461
23642.911563,2335.394858,-2679.961312,8518.448456
23642.914117,1856.830338,5627.918755,11255.837510
23642.916672,478.564520,-823.130974,9437.292334
23642.919208,-689.132909,-3464.807125,8441.878133
23642.921744,287.138712,1339.980656,9973.284597
23642.924280,1110.269686,574.277424,9877.571693
23642.926816,-937.986459,-344.566454,9418.149754
23642.929352,38.285162,-2392.822600,8824.729749
23642.931888,344.566454,1684.547110,10298.708470
23642.934424,248.853550,2163.111630,10107.282662
23642.936960,-191.425808,-4000.799387,8231.309744
23642.939497,4115.654872,2756.531635,10394.421374
23642.942033,-5245.067139,3771.088418,10528.419440
23642.944569,976.271621,-6431.907149,7676.174901
23642.947105,-1971.685822,6853.043926,11408.978157
23642.949641,-3407.379382,3311.666478,9896.714274
23642.952177,2431.107762,-4689.932296,7618.747158
23642.954713,497.707101,5876.772306,11121.839445
23642.957249,-1627.119368,1493.121302,11332.407834
23642.959786,-2163.111630,-1703.689691,9092.725880
23642.962322,-593.420005,-784.845813,9092.725880
23642.964858,-478.564520,2469.392923,10011.569758
23642.967394,172.283227,1033.699363,9590.432981
23642.969930,-1646.261949,19.142581,9150.153622
23642.972466,-478.564520,2182.254211,9973.284597
23642.975002,-1818.545176,1569.691626,9724.431046
23642.977538,-2239.681954,0.000000,8901.300072
23642.980074,421.136778,-421.136778,9207.581365
23642.982611,421.136778,4287.938099,10700.702667
23642.985147,-2947.957443,-2833.101958,8595.018779
23642.987683,6163.911018,-823.130974,9647.860723
23642.990219,2392.822600,5321.637462,11370.692995
23642.992755,-478.564520,-669.990328,9360.722011
23642.995291,1339.980656,-6183.053598,7676.174901
23642.997827,-1588.834206,5953.342629,11351.550414
23643.000363,-1320.838075,-995.414202,9322.436850
23643.002900,2220.539373,-3273.381317,8288.737486
23643.005436,1780.260014,5340.780043,11083.554283
23643.007972,497.707101,382.851616,9762.716208
23643.010508,-708.275490,-3771.088418,8365.307810
23643.013044,689.132909,650.847747,9820.143950
23643.015580,1397.408398,957.129040,10049.854920
23643.018116,-363.709035,-1550.549045,9054.440718
23643.020656,-133.998066,-2182.254211,8920.442653
23643.023196,-574.277424,248.853550,9724.431046
23643.025735,1454.836141,2239.681954,10145.567824
23643.028275,-2163.111630,-2507.678085,8480.163294
23643.030815,4019.941968,-1129.412267,9226.723946
23643.033355,-3235.096155,7274.180704,11696.116869
23643.035894,-2373.680019,-5283.352301,7944.171032
23643.038434,1244.267752,2373.680019,9973.284597
23643.040974,-2660.818731,7752.745224,11485.548480
23643.043514,1799.402595,-5111.069074,7465.606512
23643.046053,1033.699363,1263.410333,9590.432981
23643.048593,-746.560651,5072.783912,11313.265253
23643.051133,-2833.101958,-2947.957443,8652.446522
23643.053673,-248.853550,-2469.392923,8499.305875
23643.056212,-229.710970,1244.267752,9667.003304
23643.058752,-133.998066,3158.525832,10202.995566
23643.061292,-2392.822600,-76.570323,9054.440718
23643.063832,-459.421939,19.142581,9245.866526
23643.066371,-1416.550979,2967.100024,10164.710405
23643.068911,-421.136778,2182.254211,9762.716208
23643.071451,-2163.111630,-2277.967115,8633.303941
23643.073991,3177.668413,2029.113565,10202.995566
23643.076530,-4326.223261,3445.664544,10336.993632
23643.079070,2584.248408,-8595.018779,6948.756830
23643.081610,3043.670347,4000.799387,10987.841379
23643.084150,-1512.263883,6929.614250,11887.542677
23643.086689,-401.994197,-4058.227130,8403.592971
23643.089229,1512.263883,-1339.980656,9265.009107
23643.091769,612.562586,6336.194245,11466.405899
23643.094309,229.710970,-3656.232933,7982.456194
23643.096848,535.992262,-1014.556782,8882.157491
23643.099388,-19.142581,3005.385186,10738.987829
23643.101928,267.996131,-76.570323,9820.143950
23643.104468,918.843878,-2718.246474,8805.587168
23643.107007,2277.967115,440.279358,9915.856854
23643.109547,76.570323,1837.687757,10183.852986
23643.112087,325.423874,-1818.545176,9073.583299
23643.114627,-880.558717,-306.281293,9341.579430
23643.117166,2373.680019,76.570323,9877.571693
23643.119706,-708.275490,4230.510357,10624.132344
23643.122249,-3637.090352,-4326.223261,7886.743290
23643.124791,2411.965181,689.132909,9647.860723
23643.127334,-6049.055533,5781.059402,11064.411702
23643.129876,-976.271621,-4996.213589,7369.893608
