#time,accel_x,accel_y,accel_z
18921.598767,-229.710970,210.568389,-9839.286531
18921.601290,-191.425808,229.710970,-10011.569758
18921.603813,-191.425808,114.855485,-9934.999435
18921.606336,-191.425808,172.283227,-9896.714274
18921.608859,-248.853550,95.712904,-9896.714274
18921.611382,-95.712904,133.998066,-9992.427178
18921.613905,-114.855485,133.998066,-9801.001370
18921.616428,-210.568389,-574.277424,-9705.288466
18921.618951,-19.142581,363.709035,-9992.427178
18921.621474,-133.998066,191.425808,-10049.854920
18921.623997,-459.421939,-784.845813,-9781.858789
18921.626520,-57.427742,-631.705166,-9839.286531
18921.629043,842.273555,-497.707101,-10183.852986
18921.631566,-1263.410333,-2086.541307,-9513.862658
18921.634089,-555.134843,210.568389,-9877.571693
18921.636612,1129.412267,1569.691626,-10241.280728
18921.639135,95.712904,-1607.976787,-9475.577496
18921.641658,153.140646,1167.697429,-10183.852986
18921.644181,1531.406464,363.709035,-10183.852986
18921.646707,-401.994197,-38.285162,-9781.858789
18921.649234,-1014.556782,-172.283227,-9762.716208
18921.651761,-1378.265818,2048.256146,-10298.708470
18921.654287,-57.427742,593.420005,-9896.714274
18921.656814,38.285162,-1722.832272,-9399.007173
18921.659340,631.705166,1818.545176,-10317.851051
18921.661867,-459.421939,1646.261949,-10126.425243
18921.664394,-1837.687757,-1818.545176,-9092.725880
18921.666920,57.427742,2833.101958,-10777.272990
18921.669447,612.562586,248.853550,-9724.431046
18921.671974,-918.843878,-1014.556782,-9475.577496
18921.674500,-95.712904,1397.408398,-10260.423309
18921.677027,-478.564520,689.132909,-10107.282662
18921.679553,210.568389,382.851616,-9877.571693
18921.682080,-995.414202,-784.845813,-9552.147819
18921.684607,76.570323,995.414202,-10279.565890
18921.687133,-191.425808,555.134843,-10241.280728
18921.689660,-803.988394,191.425808,-9686.145885
18921.692187,-746.560651,-38.285162,-9801.001370
18921.694713,-76.570323,2009.970984,-10413.563955
18921.697240,172.283227,669.990328,-9858.429112
18921.699766,-287.138712,-95.712904,-9686.145885
18921.702293,-153.140646,937.986459,-10049.854920
18921.704820,-976.271621,1454.836141,-10049.854920
18921.707346,-689.132909,-1320.838075,-9628.718142
18921.709873,-95.712904,957.129040,-10183.852986
18921.712400,478.564520,1301.695494,-10011.569758
18921.714926,-1129.412267,-1435.693560,-9188.438784
18921.717453,-555.134843,2890.529701,-10375.278794
18921.719979,-784.845813,1722.832272,-10451.849117
18921.722506,191.425808,-421.136778,-9839.286531
18921.725033,-957.129040,2067.398726,-10126.425243
18921.727559,153.140646,-3828.516160,-8958.727814
18921.730086,1952.543242,7752.745224,-12002.398162
18921.732613,-4785.645200,-9801.001370,-6814.758765
18921.735139,2239.681954,4364.508422,-11906.685258
18921.737666,3062.812928,6106.483275,-11466.405899
18921.740192,-7121.040058,-16807.185942,-4804.787781
18921.742719,4517.649069,16807.185942,-15314.064640
18921.745246,669.990328,-6412.764568,-8001.598774
18921.747759,-4307.080680,-6240.481341,-7982.456194
18921.750272,5072.783912,11255.837510,-12614.960747
18921.752785,976.271621,1607.976787,-10547.562021
18921.755298,-3637.090352,-6125.625856,-7637.889739
18921.757811,1818.545176,3043.670347,-11389.835576
18921.760324,1493.121302,1378.265818,-10298.708470
18921.762837,-1895.115499,-4651.647134,-8365.307810
18921.765350,229.710970,1799.402595,-10624.132344
18921.767863,957.129040,2737.389054,-10662.417506
18921.770376,-1646.261949,-4211.367776,-8499.305875
18921.772889,1033.699363,1493.121302,-10547.562021
18921.775402,229.710970,1071.984525,-10107.282662
18921.777915,-1091.127106,-2124.826469,-9303.294269
18921.780428,344.566454,1186.840010,-10317.851051
18921.782941,382.851616,574.277424,-10202.995566
18921.785454,-650.847747,-306.281293,-9858.429112
18921.787967,823.130974,-95.712904,-10107.282662
18921.790480,650.847747,-918.843878,-9781.858789
18921.792993,-287.138712,-631.705166,-9896.714274
18921.795506,-593.420005,363.709035,-10030.712339
18921.798019,-612.562586,-727.418070,-9686.145885
18921.800532,478.564520,555.134843,-10202.995566
18921.803045,382.851616,-1091.127106,-9801.001370
18921.805558,57.427742,803.988394,-9992.427178
18921.808071,459.421939,95.712904,-9992.427178
18921.810584,-2316.252277,-1148.554848,-9494.720077
18921.813097,363.709035,612.562586,-10241.280728
18921.815610,-38.285162,1646.261949,-10624.132344
18921.818123,421.136778,-3235.096155,-9111.868461
18921.820636,-95.712904,3311.666478,-10815.558152
18921.823149,-344.566454,-4460.221326,-8977.870395
18921.825662,1780.260014,5915.057467,-11657.831707
18921.828175,-3732.803256,-3732.803256,-8135.596840
18921.830688,-229.710970,-1359.123237,-9762.716208
18921.833201,4632.504554,11657.831707,-13074.382686
18921.835714,-7714.460062,-16079.767872,-4249.652938
18921.838227,2507.678085,12978.669782,-13820.943338
18921.840740,2297.109696,0.000000,-8977.870395
18921.843253,-3656.232933,-9131.011042,-6699.903280
18921.845766,1301.695494,11830.114934,-11523.833642
18921.848285,1263.410333,5091.926493,-10949.556218
18921.850803,-2660.818731,-6240.481341,-7484.749093
18921.853321,1531.406464,3943.371645,-11408.978157
18921.855840,727.418070,2220.539373,-10241.280728
18921.858358,-2986.242605,-3196.810994,-8537.591037
18921.860877,535.992262,2947.957443,-10949.556218
18921.863395,516.849682,2220.539373,-10336.993632
18921.865913,-1933.400661,-4077.369710,-8537.591037
18921.868432,803.988394,3579.662610,-11083.554283
18921.870950,-497.707101,784.845813,-9628.718142
18921.873468,-2392.822600,-2584.248408,-8843.872330
18921.875987,535.992262,2660.818731,-10758.130410
18921.878505,593.420005,1397.408398,-10356.136213
18921.881023,-440.279358,210.568389,-9724.431046
18921.883542,-631.705166,-459.421939,-9781.858789
18921.886060,-191.425808,1110.269686,-10088.140082
18921.888578,114.855485,2373.680019,-10336.993632
18921.891097,-995.414202,-1818.545176,-9016.155557
18921.893615,133.998066,1493.121302,-10202.995566
18921.896134,-57.427742,2450.250342,-10279.565890
18921.898652,-1339.980656,-2086.541307,-9131.011042
18921.901170,459.421939,1818.545176,-10451.849117
18921.903689,-918.843878,516.849682,-9820.143950
18921.906207,-612.562586,-1473.978722,-9341.579430
18921.908725,-497.707101,3043.670347,-10336.993632
18921.911244,708.275490,-363.709035,-9743.573627
18921.913762,-1244.267752,1703.689691,-10145.567824
18921.916280,-287.138712,-1895.115499,-9284.151688
18921.918799,1205.982590,4689.932296,-11083.554283
18921.921317,-3005.385186,-4575.076811,-8384.450390
18921.923835,1588.834206,976.271621,-10624.132344
18921.926354,2450.250342,6872.186507,-11581.261384
18921.928872,-7101.897477,-15582.060771,-4728.217458
18921.931390,5723.631659,14088.939469,-14758.929797
18921.933909,784.845813,-4000.799387,-8652.446522
18921.936427,-5015.356170,-8748.159426,-7101.897477
18921.938946,5647.061336,13801.800757,-14567.503989
18921.941464,842.273555,2545.963246,-10738.987829
18921.943982,-4019.941968,-9705.288466,-6891.329088
18921.946501,2277.967115,6565.905214,-12346.964616
18921.949024,172.283227,-210.568389,-9379.864592
18921.951547,-2909.672282,-4977.071008,-8346.165229
18921.954070,2584.248408,3081.955509,-11313.265253
18921.956593,784.845813,401.994197,-9762.716208
18921.959116,-1703.689691,-3905.086483,-8575.876198
18921.961640,957.129040,3656.232933,-11026.126541
18921.964163,-153.140646,-248.853550,-9858.429112
18921.966686,-1033.699363,-2775.674216,-9284.151688
18921.969209,976.271621,2335.394858,-10700.702667
18921.971732,-306.281293,-555.134843,-10049.854920
18921.974255,-612.562586,-57.427742,-10011.569758
18921.976779,784.845813,-497.707101,-9839.286531
18921.979302,727.418070,-459.421939,-9954.142016
18921.981825,-306.281293,344.566454,-10107.282662
18921.984348,-937.986459,-1397.408398,-9379.864592
18921.986871,114.855485,899.701298,-10317.851051
18921.989394,95.712904,-459.421939,-9934.999435
18921.991917,-746.560651,-1914.258080,-9494.720077
18921.994441,1071.984525,1952.543242,-10470.991698
18921.996964,459.421939,-440.279358,-9839.286531
18921.999487,-2143.969050,-1550.549045,-9265.009107
18922.002010,650.847747,1339.980656,-10394.421374
18922.004533,-172.283227,1607.976787,-10451.849117
18922.007056,114.855485,-2565.105827,-9265.009107
18922.009580,-401.994197,1722.832272,-10241.280728
18922.012103,401.994197,-3005.385186,-9303.294269
18922.014626,1033.699363,5513.063270,-11466.405899
18922.017149,-4364.508422,-6642.475538,-7503.891674
18922.019672,1933.400661,4536.791650,-11255.837510
18922.022195,2105.683888,6259.623922,-11045.269122
18922.024718,-6872.186507,-14720.644635,-5225.924558
18922.027242,4804.787781,17572.889174,-15658.631094
18922.029765,229.710970,-6910.471669,-7369.893608
18922.032288,-3311.666478,-4670.789715,-8365.307810
18922.034811,4441.078746,12078.968485,-12538.390424
18922.037334,-344.566454,1225.125171,-9609.575562
18922.039857,-2431.107762,-5264.209720,-7963.313613
18922.042381,2411.965181,6049.055533,-12289.536874
18922.044904,-1052.841944,-1148.554848,-9169.296203
18922.047427,-2201.396792,-1952.543242,-9188.438784
18922.049961,1263.410333,4460.221326,-11274.980091
18922.052488,-574.277424,-803.988394,-9265.009107
18922.055015,-1148.554848,-1263.410333,-9533.005238
18922.057542,861.416136,2411.965181,-10681.560086
18922.060069,-631.705166,-133.998066,-9571.290400
18922.062596,-1014.556782,-899.701298,-9513.862658
18922.065123,-38.285162,1780.260014,-10585.847182
18922.067651,95.712904,1454.836141,-10317.851051
18922.070178,-880.558717,-746.560651,-9379.864592
18922.072705,-210.568389,344.566454,-9992.427178
18922.075232,612.562586,2201.396792,-10375.278794
18922.077759,-1071.984525,-861.416136,-9399.007173
18922.080286,-689.132909,1071.984525,-9992.427178
18922.082813,363.709035,2622.533570,-10317.851051
18922.085340,-650.847747,-1952.543242,-9341.579430
18922.087867,172.283227,842.273555,-10222.138147
18922.090394,19.142581,1990.828403,-10164.710405
18922.092921,-2201.396792,-2794.816797,-8977.870395
18922.095448,-880.558717,3407.379382,-10547.562021
18922.097975,669.990328,-210.568389,-9934.999435
18922.100502,344.566454,976.271621,-10049.854920
18922.103029,-1588.834206,-1493.121302,-9169.296203
18922.105556,2029.113565,2641.676150,-10930.413637
18922.108083,-1607.976787,1646.261949,-10088.140082
18922.110610,-3273.381317,-8154.739421,-7580.461997
18922.113137,6259.623922,12614.960747,-13993.226565
18922.115664,-3522.234867,-11064.411702,-6757.331022
18922.118191,-1780.260014,-1282.552914,-10145.567824
18922.120718,4747.360038,12863.814298,-13667.802691
18922.123245,-4670.789715,-15294.922059,-4900.500685
18922.125772,1971.685822,7350.751027,-12672.388490
18922.128299,1129.412267,3235.096155,-10815.558152
18922.130826,-2373.680019,-7905.885870,-7063.612315
18922.133353,-823.130974,-57.427742,-10336.993632
18922.135880,1971.685822,5283.352301,-11523.833642
18922.138407,-2354.537438,-5187.639397,-8193.024582
18922.140935,727.418070,-76.570323,-10336.993632
18922.143462,1818.545176,3158.525832,-10930.413637
18922.145989,-1741.974853,-3732.803256,-8652.446522
18922.148516,-133.998066,650.847747,-10241.280728
18922.151046,1091.127106,2316.252277,-10700.702667
18922.153576,-1971.685822,-3254.238736,-8958.727814
18922.156107,823.130974,1416.550979,-10356.136213
18922.158637,689.132909,937.986459,-10049.854920
18922.161167,-823.130974,-2641.676150,-9054.440718
18922.163698,191.425808,-478.564520,-9858.429112
18922.166228,1225.125171,861.416136,-10317.851051
18922.168758,-1091.127106,-2163.111630,-9303.294269
18922.171289,382.851616,555.134843,-10088.140082
18922.173819,689.132909,-842.273555,-9915.856854
18922.176349,-1071.984525,-57.427742,-9801.001370
18922.178879,-38.285162,421.136778,-9954.142016
18922.181410,-287.138712,-1531.406464,-9743.573627
18922.183940,1148.554848,2277.967115,-10624.132344
18922.186470,918.843878,-2182.254211,-9437.292334
18922.189001,-1225.125171,153.140646,-9973.284597
18922.191531,-0.000000,-899.701298,-9934.999435
18922.194061,995.414202,1818.545176,-10662.417506
18922.196592,-2009.970984,-1473.978722,-9284.151688
18922.199122,842.273555,-3139.383251,-9360.722011
18922.201652,3560.520029,10202.995566,-12825.529136
18922.204183,-6451.049730,-11466.405899,-5972.485210
18922.206713,2105.683888,8843.872330,-12519.247843
18922.209243,2718.246474,4804.787781,-10777.272990
18922.211774,-6163.911018,-13572.089787,-5551.348432
18922.214304,3598.805190,14414.363342,-14567.503989
18922.216834,-1627.119368,-4479.363907,-8097.311678
18922.219365,-1531.406464,-4268.795518,-8748.159426
18922.221895,2335.394858,9379.864592,-12729.816232
18922.224425,-2641.676150,-4287.938099,-8097.311678
18922.226956,-1607.976787,-3866.801322,-8709.874264
18922.229486,1282.552914,3828.516160,-11236.694930
18922.232016,-1263.410333,133.998066,-9513.862658
18922.234547,-1493.121302,-612.562586,-9533.005238
18922.237077,325.423874,2182.254211,-10490.134278
18922.239607,-114.855485,-114.855485,-9647.860723
18922.242138,-861.416136,-401.994197,-9934.999435
18922.244668,574.277424,842.273555,-10030.712339
18922.247198,-535.992262,535.992262,-9954.142016
18922.249728,-1129.412267,-325.423874,-9762.716208
18922.252262,-325.423874,1129.412267,-10164.710405
18922.254795,95.712904,976.271621,-9992.427178
18922.257329,-497.707101,-516.849682,-9724.431046
18922.259862,-918.843878,689.132909,-9839.286531
18922.262396,-114.855485,2431.107762,-10298.708470
18922.264929,-267.996131,-937.986459,-9609.575562
18922.267463,95.712904,306.281293,-10049.854920
18922.269996,-248.853550,1607.976787,-10068.997501
18922.272530,-1722.832272,-1990.828403,-9188.438784
18922.275064,-937.986459,2660.818731,-10356.136213
18922.277597,1110.269686,344.566454,-9992.427178
18922.280131,-842.273555,593.420005,-9762.716208
18922.282664,210.568389,-1110.269686,-9494.720077
18922.285198,-133.998066,5398.207786,-10968.698798
18922.287731,-3235.096155,-6987.041992,-7829.315547
18922.290265,57.427742,-1799.402595,-9877.571693
18922.292798,4077.369710,9533.005238,-12519.247843
18922.295332,-6604.190376,-16309.478842,-4651.647134
18922.297865,4039.084549,10987.841379,-13859.228499
18922.300399,1933.400661,401.994197,-9533.005238
18922.302932,-5781.059402,-11045.269122,-6221.338760
18922.305466,4996.213589,12882.956878,-14318.650438
18922.307999,-1665.404530,-5493.920690,-8135.596840
18922.310533,-918.843878,-3847.658741,-8997.012976
18922.313066,3024.527766,6719.045861,-12251.251712
18922.315600,-2316.252277,-4957.928427,-7944.171032
18922.318133,-918.843878,-229.710970,-10222.138147
18922.320667,2220.539373,3158.525832,-11102.696864
18922.323200,727.418070,-440.279358,-9628.718142
18922.325734,-976.271621,-2239.681954,-9284.151688
18922.328267,535.992262,1837.687757,-10470.991698
18922.330801,-248.853550,-172.283227,-9724.431046
18922.333334,-1129.412267,-765.703232,-9533.005238
18922.335868,440.279358,574.277424,-10107.282662
18922.338401,-0.000000,574.277424,-10222.138147
18922.340935,-133.998066,-765.703232,-9801.001370
18922.343468,-153.140646,-631.705166,-9801.001370
18922.346002,19.142581,382.851616,-10356.136213
18922.348535,-38.285162,-765.703232,-9934.999435
18922.351069,267.996131,-1837.687757,-9609.575562
18922.353588,-172.283227,708.275490,-9934.999435
18922.356108,-229.710970,421.136778,-10030.712339
18922.358627,-861.416136,-1761.117434,-9552.147819
18922.361147,1493.121302,2163.111630,-10566.704602
18922.363666,1244.267752,-1531.406464,-9609.575562
18922.366186,-1875.972918,-746.560651,-9552.147819
18922.368705,-133.998066,-708.275490,-9896.714274
18922.371225,823.130974,3349.951640,-10853.843314
18922.373744,-1646.261949,-5972.485210,-8327.022648
18922.376264,2928.814862,4709.074877,-11562.118803
18922.378783,-1473.978722,1320.838075,-9647.860723
18922.381303,-3637.090352,-8250.452325,-7637.889739
18922.383822,6144.768437,16386.049165,-15237.494317
18922.386342,1914.258080,2526.820666,-10164.710405
18922.388861,-5876.772306,-12174.681389,-5934.200048
18922.391381,4460.221326,14433.505923,-14797.214958
18922.393900,-2086.541307,-5742.774240,-7657.032320
18922.396420,-1205.982590,-3254.238736,-8901.300072
18922.398939,1722.832272,9054.440718,-12806.386555
18922.401459,-2641.676150,-4096.512291,-8193.024582
18922.403979,229.710970,1129.412267,-10375.278794
18922.406498,1703.689691,2450.250342,-10624.132344
18922.409018,-2105.683888,-1014.556782,-9169.296203
18922.411537,-937.986459,708.275490,-10068.997501
18922.414057,-612.562586,1512.263883,-10030.712339
18922.416576,-76.570323,689.132909,-9877.571693
18922.419096,153.140646,325.423874,-10068.997501
18922.421615,516.849682,-38.285162,-9934.999435
18922.424135,-1148.554848,-325.423874,-9667.003304
18922.426654,-593.420005,1933.400661,-10413.563955
18922.429174,-516.849682,153.140646,-9839.286531
18922.431693,-440.279358,-57.427742,-9667.003304
18922.434213,-210.568389,2488.535504,-10394.421374
18922.436732,-210.568389,248.853550,-9686.145885
18922.439252,-95.712904,191.425808,-9877.571693
18922.441771,-248.853550,363.709035,-10011.569758
18922.444291,-1014.556782,937.986459,-9858.429112
18922.446810,-344.566454,-784.845813,-9533.005238
18922.449330,-1205.982590,1703.689691,-10088.140082
18922.451849,631.705166,535.992262,-10126.425243
18922.454374,-133.998066,1493.121302,-10030.712339
18922.456898,-363.709035,-2297.109696,-9111.868461
18922.459423,-248.853550,5608.776174,-11198.409768
18922.461947,-3043.670347,-5570.491013,-8097.311678
18922.464472,2871.387120,3560.520029,-11236.694930
18922.466996,861.416136,2507.678085,-10356.136213
18922.469521,-5340.780043,-12691.531070,-6451.049730
18922.472045,6604.190376,15065.211090,-14835.500120
18922.474570,-1818.545176,-9839.286531,-6872.186507
18922.477094,-3675.375514,-1856.830338,-9245.866526
18922.479619,5321.637462,10719.845248,-13667.802691
18922.482143,-287.138712,-1741.974853,-9475.577496
18922.484668,-2048.256146,-6087.340694,-8135.596840
18922.487192,2756.531635,5895.914886,-11925.827838
18922.489717,-1397.408398,-3560.520029,-8384.450390
18922.492241,-1665.404530,-669.990328,-9820.143950
18922.494766,2201.396792,2526.820666,-10834.700733
18922.497290,-248.853550,-2029.113565,-9169.296203
18922.499815,57.427742,-880.558717,-9915.856854
18922.502339,-133.998066,1225.125171,-10260.423309
18922.504864,-727.418070,-344.566454,-9686.145885
18922.507388,-746.560651,-842.273555,-9628.718142
18922.509913,842.273555,1493.121302,-10451.849117
18922.512437,842.273555,1244.267752,-10298.708470
18922.514962,-401.994197,-1627.119368,-9513.862658
18922.517486,-191.425808,-574.277424,-9801.001370
18922.520011,516.849682,440.279358,-10375.278794
18922.522535,-1473.978722,-1607.976787,-9513.862658
18922.525060,-267.996131,344.566454,-9801.001370
18922.527584,976.271621,1263.410333,-10279.565890
18922.530109,-1110.269686,-2660.818731,-9284.151688
18922.532633,842.273555,1914.258080,-10490.134278
18922.535157,1473.978722,-535.992262,-9954.142016
18922.537682,-2029.113565,-1550.549045,-9379.864592
18922.540206,76.570323,-401.994197,-10088.140082
18922.542731,765.703232,3330.809059,-10777.272990
18922.545255,-1780.260014,-3981.656806,-8461.020714
18922.547780,1359.123237,-631.705166,-10126.425243
18922.550304,1761.117434,7599.604578,-11753.544611
18922.552829,-5934.200048,-11619.546546,-6240.481341
18922.555358,4498.506488,13859.228499,-13801.800757
18922.557887,-478.564520,-2928.814862,-8365.307810
18922.560415,-4613.361973,-7503.891674,-7580.461997
18922.562944,5915.057467,13954.941403,-14701.502054
18922.565473,-4192.225195,-8920.442653,-6508.477472
18922.568002,-593.420005,-19.142581,-9934.999435
18922.570531,803.988394,7369.893608,-12289.536874
18922.573059,-2297.109696,-4594.219392,-7695.317482
18922.575588,-612.562586,-1588.834206,-9303.294269
18922.578117,1818.545176,2469.392923,-10930.413637
18922.580646,-1703.689691,478.564520,-9743.573627
18922.583175,-2009.970984,-1512.263883,-9341.579430
18922.585703,363.709035,3330.809059,-10719.845248
18922.588232,421.136778,114.855485,-9533.005238
18922.590761,-440.279358,-1263.410333,-9571.290400
18922.593290,689.132909,1856.830338,-10604.989763
18922.595819,-1359.123237,-995.414202,-9533.005238
18922.598348,-669.990328,1397.408398,-10260.423309
18922.600876,-133.998066,1378.265818,-10049.854920
18922.603405,-1014.556782,-229.710970,-9284.151688
18922.605934,669.990328,2699.103893,-10470.991698
18922.608463,650.847747,708.275490,-10279.565890
18922.610992,-1435.693560,-1129.412267,-9590.432981
18922.613520,-555.134843,2718.246474,-10317.851051
18922.616049,-937.986459,-574.277424,-9609.575562
18922.618578,-1493.121302,516.849682,-9858.429112
18922.621107,1627.119368,1722.832272,-10394.421374
18922.623636,-229.710970,995.414202,-10011.569758
18922.626165,-631.705166,-2833.101958,-9054.440718
18922.628693,-727.418070,6183.053598,-11351.550414
18922.631222,-3062.812928,-5704.489078,-8288.737486
18922.633751,3751.945837,4977.071008,-11542.976222
18922.636280,-267.996131,-746.560651,-9322.436850
18922.638809,-6259.623922,-8997.012976,-5685.346498
18922.641337,3196.810994,10068.997501,-13629.517530
18922.643866,1856.830338,-267.996131,-9379.864592
18922.646395,-5321.637462,-9609.575562,-6680.760699
18922.648924,4843.072942,11734.402030,-13916.656242
18922.651453,-842.273555,-5436.492947,-8193.024582
18922.653981,-727.418070,-2507.678085,-9284.151688
18922.656514,1952.543242,5034.498750,-11830.114934
18922.659046,-2163.111630,-4881.358104,-8403.592971
18922.661579,-440.279358,765.703232,-10413.563955
18922.664111,1780.260014,2105.683888,-10509.276859
18922.666643,-880.558717,-2507.678085,-9054.440718
18922.669176,306.281293,-38.285162,-10336.993632
18922.671708,-19.142581,1665.404530,-10700.702667
18922.674240,325.423874,363.709035,-9858.429112
18922.676773,-306.281293,-593.420005,-9724.431046
18922.679305,-19.142581,210.568389,-9954.142016
18922.681838,-325.423874,-459.421939,-9934.999435
18922.684370,957.129040,478.564520,-10183.852986
18922.686902,-114.855485,-1780.260014,-9705.288466
18922.689435,-1263.410333,-1435.693560,-9667.003304
18922.691967,229.710970,2660.818731,-10681.560086
18922.694499,191.425808,-1435.693560,-9303.294269
18922.697032,-229.710970,-1359.123237,-9494.720077
18922.699564,1569.691626,3215.953574,-10987.841379
18922.702096,325.423874,-2660.818731,-10260.423309
18922.704629,-1052.841944,-1435.693560,-9322.436850
18922.707161,-535.992262,-1091.127106,-9762.716208
18922.709694,1186.840010,4173.082614,-11121.839445
18922.712226,-1148.554848,-5570.491013,-8250.452325
18922.714758,2679.961312,2584.248408,-10892.128475
18922.717291,-880.558717,4134.797453,-10662.417506
18922.719823,-4747.360038,-10049.854920,-7159.325219
18922.722355,5608.776174,15620.345933,-14548.361408
18922.724888,-3215.953574,-8480.163294,-6967.899411
18922.727420,-2143.969050,-631.705166,-10088.140082
18922.729953,5991.627790,10930.413637,-13552.947206
18922.732485,-5761.916821,-10987.841379,-5761.916821
18922.735017,-2507.678085,-5206.781978,-8346.165229
18922.737550,1550.549045,8231.309744,-13131.810429
18922.740082,-1473.978722,-2258.824534,-8709.874264
18922.742614,-0.000000,593.420005,-10011.569758
18922.745147,1665.404530,1799.402595,-10700.702667
18922.747679,-2373.680019,-478.564520,-9533.005238
18922.750211,-976.271621,-248.853550,-9954.142016
18922.752744,-76.570323,2392.822600,-10183.852986
18922.755276,-861.416136,-421.136778,-9341.579430
18922.757812,-459.421939,-459.421939,-9820.143950
18922.760347,1091.127106,2067.398726,-10451.849117
18922.762882,-746.560651,-708.275490,-9475.577496
18922.765417,-1148.554848,95.712904,-9820.143950
18922.767953,-114.855485,1933.400661,-10202.995566
18922.770488,765.703232,1512.263883,-10126.425243
18922.773023,-248.853550,-1033.699363,-9341.579430
18922.775559,-76.570323,899.701298,-10145.567824
18922.778094,-574.277424,2067.398726,-10298.708470
18922.780629,-1952.543242,-1837.687757,-9207.581365
18922.783165,-918.843878,1837.687757,-10145.567824
18922.785700,2067.398726,1761.117434,-10375.278794
18922.788235,-746.560651,-727.418070,-9513.862658
18922.790771,-172.283227,-669.990328,-9705.288466
18922.793306,-957.129040,5072.783912,-11160.124606
18922.795841,-2009.970984,-5934.200048,-8269.594906
18922.798376,2833.101958,2507.678085,-11026.126541
18922.800912,1665.404530,3177.668413,-10432.706536
18922.803447,-5034.498750,-12232.109131,-6278.766502
18922.805982,6049.055533,14586.646570,-14567.503989
18922.808518,-2163.111630,-10107.282662,-6910.471669
18922.811053,-3962.514226,-1799.402595,-9552.147819
18922.813588,5627.918755,10470.991698,-13725.230434
18922.816124,-2450.250342,-10107.282662,-6431.907149
18922.818659,1550.549045,2909.672282,-11026.126541
18922.821194,842.273555,3158.525832,-10987.841379
18922.823730,-2660.818731,-5130.211654,-8422.735552
18922.826265,535.992262,1837.687757,-10777.272990
18922.828800,191.425808,708.275490,-9934.999435
18922.831335,-38.285162,-842.273555,-9418.149754
18922.833871,153.140646,-823.130974,-9762.716208
18922.836406,344.566454,727.418070,-10222.138147
18922.838941,-229.710970,-880.558717,-9667.003304
18922.841477,535.992262,-38.285162,-9934.999435
18922.844012,421.136778,861.416136,-10145.567824
18922.846547,-344.566454,-1952.543242,-9399.007173
18922.849083,957.129040,765.703232,-10260.423309
18922.851618,-746.560651,-1320.838075,-9533.005238
18922.854153,-1550.549045,-861.416136,-9705.288466
18922.856689,995.414202,2220.539373,-10643.274925
18922.859227,-95.712904,-3369.094221,-9035.298138
18922.861765,-229.710970,1933.400661,-9475.577496
18922.864303,2048.256146,1359.123237,-10662.417506
18922.866842,-2297.109696,-2201.396792,-9341.579430
18922.869380,-574.277424,-1339.980656,-9724.431046
18922.871918,1091.127106,4421.936165,-11160.124606
18922.874456,-229.710970,-6508.477472,-8250.452325
18922.876995,2143.969050,5895.914886,-11523.833642
18922.879533,-4077.369710,-4134.797453,-8173.882002
18922.882071,172.283227,1359.123237,-10470.991698
18922.884609,2603.390989,8001.598774,-11619.546546
18922.887148,-6738.188442,-13878.371080,-5091.926493
18922.889686,4307.080680,15620.345933,-14950.355605
18922.892224,1033.699363,-4689.932296,-7982.456194
18922.894762,-6374.479406,-11715.259450,-5436.492947
18922.897301,401.994197,6929.614250,-12136.396227
18922.899839,-401.994197,1990.828403,-10107.282662
18922.902377,-1952.543242,-4230.510357,-8173.882002
18922.904915,1014.556782,4383.651003,-11198.409768
18922.907454,-363.709035,229.710970,-9705.288466
18922.909992,-516.849682,-306.281293,-9686.145885
18922.912530,-76.570323,153.140646,-10049.854920
18922.915068,-650.847747,1971.685822,-10164.710405
18922.917607,-535.992262,-631.705166,-9552.147819
18922.920145,899.701298,1646.261949,-10394.421374
18922.922683,-899.701298,172.283227,-9839.286531
18922.925221,-1397.408398,-899.701298,-8977.870395
18922.927760,-95.712904,2679.961312,-10604.989763
18922.930298,516.849682,1359.123237,-10107.282662
18922.932836,-1014.556782,-2029.113565,-9035.298138
18922.935374,593.420005,2507.678085,-10566.704602
18922.937913,-803.988394,1110.269686,-9954.142016
18922.940454,-1225.125171,-1320.838075,-9207.581365
18922.942995,440.279358,2431.107762,-10490.134278
18922.945536,-172.283227,976.271621,-9934.999435
18922.948077,-1933.400661,-2392.822600,-8958.727814
18922.950618,1244.267752,3905.086483,-11006.983960
18922.953158,-918.843878,-765.703232,-9475.577496
18922.955699,440.279358,-191.425808,-9705.288466
18922.958240,555.134843,3235.096155,-11313.265253
18922.960781,-3713.660675,-8250.452325,-7695.317482
18922.963322,4345.365842,6451.049730,-12480.962682
18922.965863,1225.125171,-497.707101,-9667.003304
18922.968404,-5666.203917,-10987.841379,-6833.901346
18922.970945,4632.504554,15639.488514,-14931.213024
18922.973486,-1531.406464,-10030.712339,-6297.909083
18922.976026,-1914.258080,-2201.396792,-9686.145885
18922.978567,3043.670347,8652.446522,-12557.533005
18922.981108,-1971.685822,-7695.317482,-7446.463931
18922.983649,727.418070,1320.838075,-10777.272990
18922.986190,593.420005,1186.840010,-10336.993632
18922.988731,-2124.826469,-1416.550979,-9360.722011
18922.991272,-669.990328,-1627.119368,-9590.432981
18922.993813,1569.691626,516.849682,-10183.852986
18922.996354,478.564520,593.420005,-10164.710405
18922.998895,-1052.841944,-1665.404530,-9284.151688
18923.001435,382.851616,669.990328,-10088.140082
18923.003976,229.710970,478.564520,-10202.995566
18923.006517,287.138712,-1205.982590,-9609.575562
18923.009058,325.423874,-746.560651,-9781.858789
18923.011599,-38.285162,861.416136,-10298.708470
18923.014140,-1091.127106,-1071.984525,-9647.860723
18923.016681,248.853550,-1167.697429,-9781.858789
18923.019222,382.851616,880.558717,-10298.708470
18923.021763,-229.710970,-631.705166,-9667.003304
18923.024304,-267.996131,-1856.830338,-9609.575562
18923.026844,1550.549045,2890.529701,-10853.843314
18923.029385,-1550.549045,-3503.092286,-8843.872330
18923.031926,459.421939,1914.258080,-10547.562021
18923.034467,-497.707101,-593.420005,-9954.142016
18923.037008,937.986459,-2258.824534,-9705.288466
18923.039549,478.564520,6623.332957,-11217.552349
18923.042090,-4957.928427,-9877.571693,-6929.614250
18923.044631,4153.940034,12825.529136,-13610.374949
18923.047172,-516.849682,-3388.236802,-8499.305875
18923.049712,-4268.795518,-5895.914886,-8078.169098
18923.052253,5934.200048,13514.662045,-14356.935600
18923.054794,2048.256146,1856.830338,-9762.716208
18923.057335,-2622.533570,-7944.171032,-7293.323285
18923.059876,1550.549045,8116.454259,-12768.101394
18923.062419,-363.709035,-516.849682,-9418.149754
18923.064962,-612.562586,-803.988394,-9399.007173
18923.067505,918.843878,1014.556782,-10298.708470
18923.070048,-1473.978722,1741.974853,-10049.854920
18923.072591,-344.566454,-1052.841944,-9552.147819
18923.075134,-459.421939,1033.699363,-10011.569758
18923.077677,-248.853550,1148.554848,-10222.138147
18923.080220,-1033.699363,-823.130974,-9456.434915
18923.082763,38.285162,1627.119368,-10202.995566
18923.085306,-191.425808,669.990328,-10011.569758
18923.087849,-497.707101,-95.712904,-9762.716208
18923.090392,114.855485,1167.697429,-10068.997501
18923.092935,-516.849682,612.562586,-9839.286531
18923.095478,-899.701298,1971.685822,-10049.854920
18923.098021,-421.136778,-746.560651,-9647.860723
18923.100564,-708.275490,842.273555,-10011.569758
18923.103107,1110.269686,2029.113565,-10394.421374
18923.105650,-1588.834206,-1359.123237,-9322.436850
18923.108193,153.140646,803.988394,-10049.854920
18923.110736,-803.988394,2756.531635,-10490.134278
18923.113279,555.134843,-2756.531635,-9360.722011
18923.115822,363.709035,5570.491013,-10987.841379
18923.118365,-2641.676150,-5915.057467,-7982.456194
18923.120908,-76.570323,-1052.841944,-10432.706536
18923.123451,5340.780043,10183.852986,-12863.814298
18923.125995,-6355.336826,-16979.469170,-4460.221326
18923.128538,1397.408398,11485.548480,-13744.373014
18923.131081,2660.818731,516.849682,-10164.710405
18923.133624,-4785.645200,-10643.274925,-6604.190376
18923.136167,3235.096155,9456.434915,-12978.669782
18923.138710,-133.998066,-2220.539373,-9207.581365
18923.141253,-1416.550979,-3579.662610,-8977.870395
18923.143797,957.129040,2411.965181,-10758.130410
18923.146342,-803.988394,-38.285162,-9877.571693
18923.148887,-325.423874,-1761.117434,-9590.432981
18923.151431,631.705166,-1397.408398,-9762.716208
18923.153976,593.420005,1665.404530,-10470.991698
18923.156521,-267.996131,-593.420005,-9762.716208
18923.159066,401.994197,-267.996131,-9877.571693
18923.161610,497.707101,-114.855485,-10068.997501
18923.164155,-210.568389,-497.707101,-9896.714274
18923.166700,133.998066,153.140646,-9992.427178
18923.169244,-689.132909,-1282.552914,-9647.860723
18923.171789,363.709035,-421.136778,-10088.140082
18923.174334,-363.709035,-76.570323,-9877.571693
18923.176879,-650.847747,-1167.697429,-9475.577496
18923.179423,1588.834206,918.843878,-10547.562021
18923.181968,1588.834206,3005.385186,-10911.271056
18923.184513,-1665.404530,-4709.074877,-8518.448456
18923.187057,746.560651,3292.523898,-10968.698798
18923.189602,-976.271621,-1225.125171,-9552.147819
18923.192147,918.843878,-2163.111630,-9513.862658
18923.194692,631.705166,6470.192310,-11255.837510
18923.197236,-5225.924558,-9743.573627,-6967.899411
18923.199781,4613.361973,13265.808494,-13648.660110
18923.202326,-880.558717,-4575.076811,-8327.022648
18923.204871,-3962.514226,-4326.223261,-8729.016845
18923.207415,5838.487144,12748.958813,-14108.082050
18923.209960,-4823.930362,-9379.864592,-6106.483275
18923.212505,-1971.685822,1818.545176,-10164.710405
18923.215049,1837.687757,7771.887805,-12940.384621
18923.217594,-287.138712,-689.132909,-9188.438784
18923.220139,-995.414202,-650.847747,-9494.720077
18923.222684,248.853550,1569.691626,-10336.993632
18923.225228,-1244.267752,1359.123237,-9801.001370
18923.227773,210.568389,-842.273555,-9628.718142
18923.230318,-133.998066,382.851616,-9877.571693
18923.232862,-306.281293,1378.265818,-10241.280728
18923.235407,-880.558717,-1225.125171,-9513.862658
18923.237952,459.421939,2239.681954,-10317.851051
18923.240497,-497.707101,114.855485,-9743.573627
18923.243041,-574.277424,-114.855485,-9686.145885
18923.245571,95.712904,2067.398726,-10222.138147
18923.248100,-727.418070,1033.699363,-9781.858789
18923.250630,-191.425808,19.142581,-9762.716208
18923.253159,325.423874,1205.982590,-10241.280728
18923.255688,-497.707101,574.277424,-9781.858789
18923.258218,-1646.261949,-1052.841944,-9437.292334
18923.260747,267.996131,2986.242605,-10604.989763
18923.263277,-995.414202,-1569.691626,-9284.151688
18923.265806,1186.840010,2335.394858,-10470.991698
18923.268336,-1971.685822,497.707101,-9801.001370
18923.270865,114.855485,-3637.090352,-9245.866526
18923.273394,3924.229064,9399.007173,-12500.105262
18923.275924,-5800.201982,-13954.941403,-5704.489078
18923.278453,-4096.512291,-6680.760699,-8327.022648
18923.280983,5493.920690,14318.650438,-14452.648504
18923.283512,-3254.238736,-12346.964616,-5666.203917
18923.286042,-306.281293,1454.836141,-10911.271056
18923.288571,2450.250342,6508.477472,-11696.116869
18923.291100,-2794.816797,-7580.461997,-7350.751027
18923.293630,957.129040,2067.398726,-10872.985894
18923.296159,918.843878,880.558717,-10432.706536
18923.298689,-1052.841944,-1741.974853,-9284.151688
18923.301218,593.420005,-918.843878,-9667.003304
18923.303748,440.279358,1607.976787,-10490.134278
18923.306277,-459.421939,-76.570323,-9877.571693
18923.308806,-957.129040,-1837.687757,-9245.866526
18923.311336,861.416136,-229.710970,-9934.999435
18923.313865,1091.127106,1703.689691,-10604.989763
18923.316395,-899.701298,-2163.111630,-9303.294269
18923.318924,-535.992262,-344.566454,-9801.001370
18923.321454,784.845813,995.414202,-10566.704602
18923.323983,-478.564520,-2488.535504,-9379.864592
18923.326512,-248.853550,325.423874,-9820.143950
18923.329042,593.420005,861.416136,-10298.708470
18923.331571,-1320.838075,-2507.678085,-9399.007173
18923.334101,1741.974853,1416.550979,-10470.991698
18923.336630,-401.994197,-478.564520,-9705.288466
18923.339160,-133.998066,-1359.123237,-9571.290400
18923.341689,-401.994197,4268.795518,-11045.269122
18923.344218,-2297.109696,-6355.336826,-8212.167163
18923.346752,3235.096155,8097.311678,-12251.251712
18923.349285,-2029.113565,-2277.967115,-8346.165229
18923.351818,-3675.375514,-5723.631659,-8346.165229
18923.354351,5398.207786,16022.340130,-14433.505923
18923.356885,-3981.656806,-13342.378818,-5436.492947
18923.359418,-1282.552914,3981.656806,-11102.696864
18923.361951,3847.658741,8805.587168,-12997.812363
18923.364484,-3483.949706,-9801.001370,-6374.479406
18923.367018,593.420005,4766.502619,-11026.126541
18923.369551,918.843878,3617.947771,-10643.274925
18923.372084,-1588.834206,-2833.101958,-9284.151688
18923.374617,-344.566454,-1397.408398,-9513.862658
18923.377151,344.566454,2105.683888,-10700.702667
18923.379684,-1378.265818,937.986459,-10222.138147
18923.382217,-574.277424,-1071.984525,-9418.149754
18923.384750,-344.566454,287.138712,-9686.145885
18923.387284,-842.273555,1320.838075,-10202.995566
18923.389817,-210.568389,382.851616,-9934.999435
18923.392350,-574.277424,19.142581,-9724.431046
18923.394883,-363.709035,1722.832272,-10222.138147
18923.397417,-727.418070,2067.398726,-10030.712339
18923.399950,-114.855485,-1071.984525,-9418.149754
18923.402483,459.421939,1722.832272,-10451.849117
18923.405016,899.701298,2967.100024,-10566.704602
18923.407550,-1818.545176,-2718.246474,-8977.870395
18923.410083,-229.710970,1990.828403,-10336.993632
18923.412616,-631.705166,1665.404530,-10336.993632
18923.415149,1148.554848,-631.705166,-9590.432981
18923.417683,-1225.125171,2411.965181,-10088.140082
18923.420216,-1531.406464,-5359.922624,-8767.302006
18923.422749,4670.789715,10068.997501,-13074.382686
18923.425282,-3924.229064,-12002.398162,-6106.483275
18923.427816,-957.129040,1799.402595,-11083.554283
18923.430349,4766.502619,8977.870395,-12902.099459
18923.432882,-5379.065205,-14242.080115,-5225.924558
18923.435415,2775.674216,7867.600709,-13036.097525
18923.437949,3196.810994,9513.862658,-13055.240106
18923.440482,-1780.260014,-6546.762634,-7580.461997
18923.443015,-95.712904,-918.843878,-9839.286531
18923.445548,1531.406464,3081.955509,-11083.554283
18923.448085,-727.418070,-2009.970984,-9322.436850
18923.450621,76.570323,-1741.974853,-9399.007173
18923.453157,287.138712,1875.972918,-10413.563955
18923.455693,-306.281293,248.853550,-10107.282662
18923.458230,-172.283227,-2009.970984,-9475.577496
18923.460766,1205.982590,1703.689691,-10470.991698
18923.463302,57.427742,-57.427742,-9934.999435
18923.465838,-880.558717,-1722.832272,-9360.722011
18923.468375,-38.285162,-1339.980656,-9686.145885
18923.470911,555.134843,19.142581,-10356.136213
18923.473447,-1052.841944,-133.998066,-9724.431046
18923.475983,-306.281293,-1091.127106,-9513.862658
18923.478520,1148.554848,153.140646,-10470.991698
18923.481056,727.418070,1512.263883,-10470.991698
18923.483592,-1014.556782,-3464.807125,-8824.729749
18923.486129,593.420005,3215.953574,-10968.698798
18923.488665,-1225.125171,-1952.543242,-9379.864592
18923.491201,1301.695494,-1071.984525,-9801.001370
18923.493737,-401.994197,4766.502619,-10758.130410
18923.496274,-4019.941968,-8518.448456,-7503.891674
18923.498810,4747.360038,13552.947206,-13801.800757
18923.501346,3541.377448,6451.049730,-11313.265253
18923.503882,-6489.334891,-12500.105262,-5321.637462
18923.506419,2584.248408,12308.679454,-14222.937534
18923.508955,478.564520,-1818.545176,-8499.305875
18923.511491,-2316.252277,-6125.625856,-7925.028451
18923.514027,2258.824534,8901.300072,-13610.374949
18923.516564,-1186.840010,-2163.111630,-8805.587168
18923.519100,-1569.691626,-1607.976787,-9169.296203
18923.521636,823.130974,4249.652938,-10949.556218
18923.524172,-842.273555,76.570323,-9571.290400
18923.526709,-459.421939,-1186.840010,-9628.718142
18923.529245,-708.275490,440.279358,-10107.282662
18923.531781,-689.132909,1799.402595,-10260.423309
18923.534317,-555.134843,1129.412267,-10145.567824
18923.536854,-191.425808,-459.421939,-9552.147819
18923.539390,-784.845813,574.277424,-9820.143950
18923.541926,-727.418070,2526.820666,-10279.565890
18923.544463,-0.000000,612.562586,-9762.716208
18923.546999,-229.710970,-191.425808,-9839.286531
18923.549538,-1091.127106,1473.978722,-10183.852986
18923.552077,382.851616,631.705166,-9992.427178
18923.554616,-650.847747,0.000000,-9667.003304
18923.557155,-248.853550,191.425808,-9954.142016
18923.559695,-1186.840010,2029.113565,-10260.423309
18923.562234,1665.404530,-1684.547110,-9360.722011
18923.564773,3273.381317,7006.184573,-11849.257515
18923.567312,-3254.238736,-6412.764568,-7886.743290
18923.569851,172.283227,-440.279358,-10547.562021
18923.572390,5130.211654,9226.723946,-12576.675586
18923.574930,-6278.766502,-16692.330458,-4594.219392
18923.577469,1780.260014,10987.841379,-13667.802691
18923.580008,2335.394858,650.847747,-10107.282662
18923.582547,-5072.783912,-10681.560086,-6489.334891
18923.585086,3081.955509,9016.155557,-12997.812363
18923.587625,38.285162,-1339.980656,-9437.292334
18923.590164,-2297.109696,-5034.498750,-8384.450390
18923.592704,1722.832272,3426.521963,-11255.837510
18923.595243,344.566454,-210.568389,-10796.415571
18923.597782,-1397.408398,-2756.531635,-8824.729749
18923.600321,-19.142581,-287.138712,-9743.573627
18923.602860,708.275490,2277.967115,-10758.130410
18923.605399,-593.420005,-1818.545176,-9571.290400
18923.607939,1110.269686,325.423874,-10068.997501
18923.610478,382.851616,-421.136778,-9724.431046
18923.613017,-650.847747,-1569.691626,-9705.288466
18923.615556,842.273555,267.996131,-10298.708470
18923.618095,-1225.125171,-1282.552914,-9475.577496
18923.620634,-401.994197,-114.855485,-9762.716208
18923.623173,2163.111630,325.423874,-10394.421374
18923.625713,57.427742,-229.710970,-9858.429112
18923.628252,-1091.127106,-2986.242605,-8977.870395
18923.630791,248.853550,2201.396792,-10547.562021
18923.633330,-1110.269686,-1282.552914,-9590.432981
18923.635869,1282.552914,-1359.123237,-9896.714274
18923.638408,-114.855485,4843.072942,-10758.130410
18923.640948,-4019.941968,-8805.587168,-7312.465866
18923.643487,4709.074877,13227.523333,-13667.802691
18923.646026,-1856.830338,-5168.496816,-7867.600709
18923.648565,-3694.518094,-2833.101958,-9131.011042
18923.651106,5838.487144,12232.109131,-13667.802691
18923.653648,-5034.498750,-10011.569758,-5915.057467
18923.656189,-2258.824534,2086.541307,-10432.706536
18923.658731,2105.683888,6355.336826,-11715.259450
18923.661272,-1359.123237,-861.416136,-9092.725880
18923.663814,-1990.828403,-2603.390989,-8920.442653
18923.666355,937.986459,4613.361973,-10949.556218
18923.668896,172.283227,287.138712,-9724.431046
18923.671438,344.566454,-1359.123237,-9341.579430
18923.673979,-1550.549045,535.992262,-9954.142016
18923.676521,-1531.406464,803.988394,-10011.569758
18923.679062,861.416136,1148.554848,-10183.852986
18923.681604,76.570323,-287.138712,-9456.434915
18923.684145,-1856.830338,114.855485,-9762.716208
18923.686686,57.427742,4153.940034,-10796.415571
18923.689228,57.427742,-1627.119368,-9207.581365
18923.691769,-1091.127106,-2086.541307,-9092.725880
18923.694311,631.705166,4192.225195,-10834.700733
18923.696852,-1684.547110,-2143.969050,-9284.151688
18923.699393,-1167.697429,765.703232,-9992.427178
18923.701935,650.847747,1875.972918,-10413.563955
18923.704476,459.421939,861.416136,-10068.997501
18923.707018,-2584.248408,-2105.683888,-8958.727814
18923.709559,2143.969050,1512.263883,-10624.132344
18923.712101,1818.545176,6412.764568,-11466.405899
18923.714642,-6240.481341,-14873.785282,-5168.496816
18923.717183,4383.651003,11830.114934,-14146.367211
18923.719725,1799.402595,-2756.531635,-9169.296203
18923.722266,-5761.916821,-10107.282662,-6565.905214
18923.724808,1397.408398,4938.785846,-11964.113000
18923.727349,2909.672282,5340.780043,-11638.689126
18923.729891,-4115.654872,-9035.298138,-6776.473603
18923.732432,1990.828403,3847.658741,-11466.405899
18923.734973,1435.693560,1722.832272,-10566.704602
18923.737515,-2565.105827,-5379.065205,-8212.167163
18923.740056,1033.699363,1646.261949,-10738.987829
18923.742598,459.421939,2009.970984,-10336.993632
18923.745139,-1435.693560,-2718.246474,-8843.872330
18923.747681,631.705166,210.568389,-9973.284597
18923.750222,918.843878,1378.265818,-10566.704602
18923.752749,-248.853550,-2067.398726,-9418.149754
18923.755275,-114.855485,-1799.402595,-9590.432981
18923.757802,401.994197,-172.283227,-10202.995566
18923.760329,-861.416136,382.851616,-10068.997501
18923.762856,-38.285162,-708.275490,-9533.005238
18923.765382,574.277424,-1684.547110,-9686.145885
18923.767909,1550.549045,2565.105827,-10853.843314
18923.770436,-631.705166,-2775.674216,-8997.012976
18923.772962,-363.709035,823.130974,-10107.282662
18923.775489,-1282.552914,421.136778,-10030.712339
18923.778016,1244.267752,-1493.121302,-9896.714274
18923.780543,38.285162,3924.229064,-10566.704602
18923.783069,-3598.805190,-8059.026517,-7580.461997
18923.785596,3962.514226,13170.095590,-13629.517530
18923.788123,3158.525832,7446.463931,-11523.833642
18923.790649,-5857.629725,-12480.962682,-5474.778109
18923.793176,2603.390989,11542.976222,-13916.656242
18923.795703,248.853550,-669.990328,-8901.300072
18923.798230,-2699.103893,-6910.471669,-7810.172966
18923.800756,2469.392923,8920.442653,-13170.095590
18923.803283,-1627.119368,-1971.685822,-8882.157491
18923.805810,-1914.258080,-2009.970984,-8977.870395
18923.808336,1550.549045,4977.071008,-11313.265253
18923.810863,-612.562586,-689.132909,-9016.155557
18923.813390,478.564520,-765.703232,-9571.290400
18923.815917,-899.701298,1301.695494,-10375.278794
18923.818443,-2182.254211,-344.566454,-9743.573627
18923.820970,-1588.834206,555.134843,-9992.427178
18923.823497,1091.127106,2737.389054,-10451.849117
18923.826023,-1110.269686,-727.418070,-9207.581365
18923.828550,-114.855485,1205.982590,-10164.710405
18923.831077,1301.695494,2354.537438,-10528.419440
18923.833604,-1780.260014,-1780.260014,-9073.583299
18923.836130,-229.710970,1129.412267,-10222.138147
18923.838657,114.855485,2909.672282,-10509.276859
18923.841184,-937.986459,-3541.377448,-8786.444587
18923.843710,-899.701298,3962.514226,-10758.130410
18923.846237,612.562586,-2622.533570,-9360.722011
18923.848764,1856.830338,5245.067139,-11045.269122
18923.851291,-976.271621,-937.986459,-9265.009107
18923.853822,-3464.807125,-7580.461997,-8135.596840
18923.856353,6317.051664,13744.373014,-14414.363342
18923.858883,-3139.383251,-14184.652373,-5436.492947
18923.861414,-2392.822600,1856.830338,-11006.983960
18923.863945,4709.074877,9111.868461,-12710.673651
18923.866476,-4077.369710,-12117.253646,-6163.911018
18923.869007,1569.691626,4498.506488,-11638.689126
18923.871538,1129.412267,4843.072942,-11313.265253
18923.874069,-3503.092286,-7446.463931,-7657.032320
18923.876600,1301.695494,2009.970984,-10930.413637
18923.879131,1550.549045,1761.117434,-10566.704602
18923.881662,-1722.832272,-3273.381317,-9513.862658
18923.884193,-861.416136,-1435.693560,-9265.009107
18923.886724,-248.853550,1205.982590,-10126.425243
18923.889255,38.285162,344.566454,-10183.852986
18923.891786,1033.699363,-1148.554848,-9533.005238
18923.894317,631.705166,-1627.119368,-9628.718142
18923.896848,-823.130974,-76.570323,-10260.423309
18923.899379,-516.849682,401.994197,-10049.854920
18923.901910,325.423874,-765.703232,-9628.718142
18923.904441,-19.142581,-1550.549045,-9628.718142
18923.906972,1531.406464,1875.972918,-10662.417506
18923.909503,-172.283227,-1818.545176,-9265.009107
18923.912034,-459.421939,-267.996131,-9762.716208
18923.914565,-1186.840010,3560.520029,-10987.841379
18923.917096,-1339.980656,-5493.920690,-8767.302006
18923.919627,3981.656806,8135.596840,-12289.536874
18923.922158,-3503.092286,-5761.916821,-7503.891674
18923.924689,-1895.115499,-57.427742,-9801.001370
18923.927220,4613.361973,11983.255581,-13055.240106
18923.929751,-5455.635528,-13380.663979,-4881.358104
18923.932282,1359.123237,8039.883936,-12538.390424
18923.934813,2009.970984,4345.365842,-11217.552349
18923.937344,-3732.803256,-9054.440718,-6814.758765
18923.939875,1952.543242,7561.319416,-12232.109131
18923.942406,-612.562586,842.273555,-9762.716208
18923.944937,-2986.242605,-3694.518094,-8441.878133
18923.947468,-1378.265818,937.986459,-10030.712339
18923.949999,995.414202,3311.666478,-10796.415571
18923.952530,-899.701298,-1244.267752,-9494.720077
18923.955064,765.703232,76.570323,-10107.282662
18923.957599,-1205.982590,1014.556782,-9877.571693
18923.960133,-1971.685822,191.425808,-9705.288466
18923.962668,382.851616,2488.535504,-10260.423309
18923.965202,133.998066,191.425808,-9494.720077
18923.967737,-440.279358,-57.427742,-9839.286531
18923.970271,-287.138712,2029.113565,-10298.708470
18923.972806,325.423874,133.998066,-9839.286531
18923.975340,-957.129040,248.853550,-9801.001370
18923.977875,-19.142581,-382.851616,-9647.860723
18923.980409,-1473.978722,1646.261949,-10126.425243
18923.982944,1320.838075,-1320.838075,-9705.288466
18923.985478,1033.699363,5245.067139,-11064.411702
18923.988013,-3809.373579,-8595.018779,-7216.752962
18923.990547,3771.088418,7676.174901,-12653.245909
18923.993082,1301.695494,-344.566454,-9896.714274
18923.995616,-5340.780043,-11810.972354,-6757.331022
18923.998151,4938.785846,13897.513661,-14624.931731
18924.000685,-1435.693560,-7255.038123,-7121.040058
18924.003220,-3196.810994,-4651.647134,-8748.159426
18924.005754,3751.945837,8595.018779,-12768.101394
18924.008289,-1454.836141,-4957.928427,-8039.883936
18924.010823,-3139.383251,-6336.194245,-7810.172966
18924.013358,1722.832272,2431.107762,-11006.983960
18924.015892,1646.261949,937.986459,-10451.849117
18924.018427,-1493.121302,-3464.807125,-8920.442653
18924.020961,937.986459,1512.263883,-10432.706536
18924.023496,153.140646,937.986459,-10145.567824
18924.026030,-248.853550,-1569.691626,-9456.434915
18924.028565,1320.838075,153.140646,-9973.284597
18924.031099,114.855485,-937.986459,-9858.429112
18924.033634,-1531.406464,-708.275490,-9781.858789
18924.036168,-440.279358,-172.283227,-9877.571693
18924.038703,784.845813,325.423874,-10183.852986
18924.041237,191.425808,535.992262,-10011.569758
18924.043772,-535.992262,-2775.674216,-9322.436850
18924.046306,210.568389,3292.523898,-10853.843314
18924.048841,421.136778,-2852.244539,-9111.868461
18924.051375,-363.709035,2603.390989,-10336.993632
18924.053910,-2909.672282,-4613.361973,-8499.305875
18924.056447,2641.676150,6144.768437,-11944.970419
18924.058985,-1282.552914,-689.132909,-8958.727814
18924.061522,-4192.225195,-7331.608446,-7637.889739
18924.064060,4709.074877,16041.482710,-14663.216893
18924.066597,-3235.096155,-10547.562021,-5704.489078
18924.069135,-382.851616,440.279358,-10183.852986
18924.071672,5321.637462,10853.843314,-13476.376883
18924.074210,-937.986459,-2258.824534,-8767.302006
18924.076747,-2297.109696,-5532.205851,-8480.163294
18924.079285,2507.678085,8020.741355,-12940.384621
18924.081822,-1397.408398,-1473.978722,-9284.151688
18924.084360,-1493.121302,-1416.550979,-9379.864592
18924.086897,325.423874,3196.810994,-10662.417506
18924.089435,-1397.408398,-287.138712,-9858.429112
18924.091972,650.847747,267.996131,-9992.427178
18924.094510,-803.988394,95.712904,-9609.575562
18924.097047,-1780.260014,899.701298,-9954.142016
18924.099585,382.851616,2928.814862,-10528.419440
18924.102122,-57.427742,-1646.261949,-9188.438784
18924.104660,-1435.693560,1148.554848,-9322.436850
18924.107197,708.275490,3790.230998,-11006.983960
18924.109735,-1320.838075,-1435.693560,-9513.862658
18924.112272,-1148.554848,-19.142581,-9743.573627
18924.114810,-76.570323,2507.678085,-10585.847182
18924.117347,1339.980656,306.281293,-10068.997501
18924.119885,-2335.394858,-669.990328,-9456.434915
18924.122422,248.853550,-2009.970984,-9801.001370
18924.124960,3656.232933,9131.011042,-12308.679454
18924.127497,-5149.354235,-13993.226565,-5455.635528
18924.130035,1244.267752,6738.188442,-12729.816232
18924.132572,3809.373579,3656.232933,-11006.983960
18924.135110,-5819.344563,-13093.525267,-5551.348432
18924.137647,-1205.982590,-401.994197,-10222.138147
18924.140185,4096.512291,8250.452325,-12538.390424
18924.142722,-2737.389054,-8384.450390,-7140.182638
18924.145260,650.847747,995.414202,-10317.851051
18924.147797,2086.541307,4383.651003,-11351.550414
18924.150335,-2507.678085,-5149.354235,-8288.737486
18924.152872,-344.566454,-593.420005,-10030.712339
18924.155410,995.414202,3617.947771,-10911.271056
18924.157933,-535.992262,-2067.398726,-9226.723946
18924.160457,210.568389,-1607.976787,-9513.862658
18924.162980,1148.554848,1607.976787,-10643.274925
18924.165504,-440.279358,-1378.265818,-9609.575562
18924.168027,-555.134843,-1339.980656,-9494.720077
18924.170551,172.283227,-267.996131,-9915.856854
18924.173074,650.847747,-823.130974,-10145.567824
18924.175598,459.421939,1186.840010,-10145.567824
18924.178121,172.283227,-2660.818731,-9265.009107
18924.180645,-114.855485,2909.672282,-10834.700733
18924.183168,593.420005,-2239.681954,-9456.434915
18924.185692,746.560651,2086.541307,-10145.567824
18924.188215,-3771.088418,-2718.246474,-8690.731683
18924.190739,746.560651,1952.543242,-10643.274925
18924.193262,1263.410333,4977.071008,-11026.126541
18924.195786,-5340.780043,-10853.843314,-6317.051664
18924.198309,3369.094221,14490.933666,-14510.076246
18924.200833,4517.649069,8039.883936,-12327.822035
18924.203356,-5895.914886,-12021.540742,-5589.633594
18924.205880,95.712904,7752.745224,-12289.536874
18924.208403,1378.265818,3024.527766,-9973.284597
18924.210927,-2048.256146,-7848.458128,-7159.325219
18924.213450,1990.828403,6431.907149,-12059.825904
18924.215974,-306.281293,1339.980656,-9552.147819
18924.218497,-1301.695494,-2775.674216,-8805.587168
18924.221021,-382.851616,2373.680019,-10547.562021
18924.223544,287.138712,1416.550979,-10336.993632
18924.226068,-784.845813,-784.845813,-9360.722011
18924.228591,-459.421939,114.855485,-9628.718142
18924.231115,-612.562586,3235.096155,-10681.560086
18924.233638,-57.427742,1741.974853,-10413.563955
18924.236162,-918.843878,-1531.406464,-9207.581365
18924.238685,95.712904,3541.377448,-10566.704602
18924.241209,-1014.556782,-1033.699363,-9609.575562
18924.243732,-1588.834206,421.136778,-9858.429112
18924.246256,1091.127106,765.703232,-10126.425243
18924.248779,-1588.834206,2182.254211,-10030.712339
18924.251303,-2354.537438,-4555.934230,-8499.305875
18924.253826,4326.223261,6489.334891,-12136.396227
18924.256350,-1569.691626,-2622.533570,-8824.729749
18924.258878,-2545.963246,-6833.901346,-8193.024582
18924.261406,6336.194245,13514.662045,-14280.365277
18924.263935,1703.689691,-2182.254211,-9494.720077
18924.266463,-5685.346498,-9552.147819,-6910.471669
18924.268991,5245.067139,11830.114934,-13706.087853
18924.271520,497.707101,-4670.789715,-8327.022648
18924.274048,-2679.961312,-4709.074877,-8633.303941
18924.276576,2373.680019,7637.889739,-12346.964616
18924.279105,-1416.550979,-3503.092286,-8652.446522
18924.281633,-1569.691626,-3177.668413,-9111.868461
18924.284161,2335.394858,3828.516160,-11313.265253
18924.286690,114.855485,-1588.834206,-9456.434915
18924.289218,-727.418070,-1703.689691,-9284.151688
18924.291746,612.562586,1837.687757,-10758.130410
18924.294275,-574.277424,-516.849682,-10088.140082
18924.296803,-842.273555,-1818.545176,-9379.864592
18924.299332,-38.285162,-382.851616,-9628.718142
18924.301860,631.705166,593.420005,-10375.278794
18924.304388,-401.994197,-2411.965181,-9590.432981
18924.306917,823.130974,1033.699363,-10126.425243
18924.309445,478.564520,-1186.840010,-9724.431046
18924.311973,-669.990328,1397.408398,-10222.138147
18924.314502,689.132909,-2258.824534,-9667.003304
18924.317030,1933.400661,3139.383251,-10815.558152
18924.319558,-3809.373579,-2775.674216,-8480.163294
18924.322087,-612.562586,-995.414202,-9820.143950
18924.324615,3464.807125,9934.999435,-13074.382686
18924.327143,-2009.970984,-5991.627790,-7676.174901
18924.329672,-3311.666478,-2297.109696,-9226.723946
18924.332200,5991.627790,12519.247843,-13954.941403
18924.334728,-5819.344563,-11083.554283,-6087.340694
18924.337257,-2048.256146,2756.531635,-10413.563955
18924.339785,2201.396792,7235.895542,-12327.822035
18924.342313,-2507.678085,-7733.602643,-6872.186507
18924.344842,880.558717,3426.521963,-10872.985894
18924.347370,344.566454,4211.367776,-11026.126541
18924.349898,-2029.113565,-3847.658741,-8422.735552
18924.352427,-363.709035,2086.541307,-10681.560086
18924.354955,516.849682,2354.537438,-10509.276859
18924.357483,-2067.398726,-2029.113565,-8843.872330
18924.360016,-631.705166,-325.423874,-9418.149754
18924.362548,918.843878,2737.389054,-10528.419440
18924.365081,-746.560651,-497.707101,-9801.001370
18924.367613,-1531.406464,976.271621,-9820.143950
18924.370146,784.845813,1301.695494,-10145.567824
18924.372678,-287.138712,1110.269686,-10241.280728
18924.375211,-344.566454,-976.271621,-9475.577496
18924.377743,-1473.978722,1033.699363,-9954.142016
18924.380276,1990.828403,1263.410333,-10394.421374
18924.382808,-1186.840010,2335.394858,-10068.997501
18924.385341,-3349.951640,-8365.307810,-7791.030386
18924.387873,5608.776174,11810.972354,-13763.515595
18924.390406,4153.940034,-8633.303941,-11619.546546
18924.392938,-6642.475538,-16156.338195,-4938.785846
18924.395471,3043.670347,13170.095590,-14586.646570
18924.398003,-38.285162,-2239.681954,-8882.157491
18924.400536,-4747.360038,-9820.143950,-6623.332957
18924.403068,4594.219392,9973.284597,-13361.521398
18924.405601,95.712904,-3464.807125,-8805.587168
18924.408133,-2622.533570,-4804.787781,-8346.165229
18924.410666,2967.100024,6068.198114,-11983.255581
18924.413198,-899.701298,-2182.254211,-9284.151688
18924.415731,-1339.980656,-4096.512291,-8843.872330
18924.418263,2852.244539,4862.215523,-11217.552349
18924.420796,-708.275490,-2277.967115,-9131.011042
18924.423328,-1971.685822,-5072.783912,-8709.874264
18924.425861,1167.697429,2526.820666,-10777.272990
18924.428393,229.710970,382.851616,-9973.284597
18924.430926,-1186.840010,-2947.957443,-9054.440718
18924.433458,2009.970984,267.996131,-10432.706536
18924.435991,421.136778,535.992262,-10279.565890
18924.438523,-497.707101,-2450.250342,-9207.581365
18924.441056,38.285162,2699.103893,-10490.134278
18924.443588,401.994197,-2182.254211,-9609.575562
18924.446121,1665.404530,2718.246474,-10892.128475
18924.448653,-3464.807125,-2565.105827,-8595.018779
18924.451186,-1071.984525,-1071.984525,-9686.145885
18924.453718,3483.949706,10490.134278,-14069.796888
18924.456251,-1933.400661,-5972.485210,-7599.604578
18924.458783,-2986.242605,-2871.387120,-9035.298138
18924.461303,6183.053598,13074.382686,-14012.369146
18924.463822,-5800.201982,-11198.409768,-5991.627790
18924.466341,-1856.830338,3062.812928,-10662.417506
18924.468861,2124.826469,7101.897477,-12557.533005
18924.471380,-3005.385186,-7580.461997,-6776.473603
18924.473900,1301.695494,3311.666478,-11045.269122
18924.476419,401.994197,3847.658741,-10872.985894
18924.478939,-2354.537438,-4058.227130,-8327.022648
18924.481458,-325.423874,2335.394858,-10490.134278
18924.483977,555.134843,3120.240670,-10566.704602
18924.486497,-1550.549045,-746.560651,-9111.868461
18924.489016,-172.283227,-1186.840010,-9360.722011
18924.491536,1914.258080,4575.076811,-10987.841379
18924.494055,-1684.547110,-1914.258080,-9322.436850
18924.496575,-1052.841944,1895.115499,-9992.427178
18924.499094,344.566454,1110.269686,-10011.569758
18924.501613,-1033.699363,76.570323,-9686.145885
18924.504133,689.132909,-57.427742,-9858.429112
18924.506652,-1091.127106,2067.398726,-10068.997501
18924.509172,-2718.246474,-3809.373579,-8690.731683
18924.511691,4192.225195,6546.762634,-12174.681389
18924.514210,-1531.406464,-3464.807125,-8690.731683
18924.516730,-2316.252277,-5934.200048,-8690.731683
18924.519249,3866.801322,11294.122672,-13667.802691
18924.521769,1473.978722,-2660.818731,-9265.009107
18924.524288,-5379.065205,-9418.149754,-7006.184573
18924.526808,4843.072942,12653.245909,-14069.796888
18924.529327,-172.283227,-6202.196179,-7791.030386
18924.531846,-1780.260014,-4000.799387,-8939.585234
18924.534366,2373.680019,7369.893608,-12327.822035
18924.536885,-2086.541307,-4173.082614,-8461.020714
18924.539405,-803.988394,-2067.398726,-9341.579430
18924.541924,1741.974853,3847.658741,-11274.980091
18924.544443,-440.279358,-2392.822600,-9245.866526
18924.546963,344.566454,-1205.982590,-9533.005238
18924.549482,1282.552914,133.998066,-10164.710405
18924.552002,-631.705166,555.134843,-10375.278794
18924.554521,-918.843878,-1416.550979,-9456.434915
18924.557041,1014.556782,95.712904,-9934.999435
18924.559560,899.701298,-1875.972918,-9858.429112
18924.562085,-57.427742,1225.125171,-10413.563955
18924.564610,-516.849682,-2507.678085,-9322.436850
18924.567135,-612.562586,2009.970984,-10356.136213
18924.569660,1550.549045,-555.134843,-10030.712339
18924.572185,1110.269686,1646.261949,-10336.993632
18924.574710,-4173.082614,-4287.938099,-8154.739421
18924.577235,1205.982590,4307.080680,-11064.411702
18924.579760,650.847747,4058.227130,-10547.562021
18924.582285,-4670.789715,-11332.407834,-6087.340694
18924.584810,-421.136778,5398.207786,-11255.837510
18924.587335,4938.785846,7944.171032,-12576.675586
18924.589860,-5264.209720,-12212.966550,-5532.205851
18924.592385,114.855485,8786.444587,-12576.675586
18924.594910,248.853550,2316.252277,-10145.567824
18924.597435,-2373.680019,-7235.895542,-7465.606512
18924.599960,2507.678085,7140.182638,-12155.538808
18924.602485,-1167.697429,-133.998066,-9284.151688
18924.605010,-746.560651,-3349.951640,-8690.731683
18924.607535,440.279358,4843.072942,-11217.552349
18924.610060,-1627.119368,-612.562586,-9494.720077
18924.612585,-2297.109696,-1588.834206,-9054.440718
18924.615110,1148.554848,1722.832272,-10202.995566
18924.617635,401.994197,1531.406464,-10183.852986
18924.620160,-2201.396792,-210.568389,-9628.718142
18924.622685,287.138712,2258.824534,-10260.423309
18924.625210,-478.564520,229.710970,-9801.001370
18924.627735,-937.986459,248.853550,-9667.003304
18924.630260,-57.427742,650.847747,-10088.140082
18924.632785,899.701298,1761.117434,-10298.708470
18924.635310,-3541.377448,-2488.535504,-8805.587168
18924.637836,1741.974853,631.705166,-10547.562021
18924.640361,2947.957443,6738.188442,-11734.402030
18924.642886,-5627.918755,-14624.931731,-6929.614250
18924.645411,-2584.248408,-2373.680019,-9609.575562
18924.647936,5474.778109,11830.114934,-13916.656242
18924.650461,-4766.502619,-13055.240106,-5627.918755
18924.652986,1454.836141,4364.508422,-11772.687192
18924.655511,4039.084549,5091.926493,-11830.114934
18924.658036,-3560.520029,-9265.009107,-6987.041992
18924.660561,1339.980656,3751.945837,-11447.263318
18924.663090,287.138712,2411.965181,-10470.991698
18924.665620,-2928.814862,-5091.926493,-8288.737486
18924.668150,1301.695494,2086.541307,-10796.415571
18924.670680,746.560651,650.847747,-10298.708470
18924.673210,-842.273555,-2507.678085,-9207.581365
18924.675739,-0.000000,-937.986459,-9781.858789
18924.678269,19.142581,1186.840010,-10375.278794
18924.680799,-1244.267752,-1627.119368,-9552.147819
18924.683329,1397.408398,-669.990328,-10011.569758
18924.685859,-0.000000,-516.849682,-9839.286531
18924.688388,-1186.840010,-1780.260014,-9552.147819
18924.690918,-95.712904,2239.681954,-10509.276859
18924.693448,708.275490,-1990.828403,-9360.722011
18924.695978,-1550.549045,1225.125171,-10145.567824
18924.698508,-38.285162,-3158.525832,-9303.294269
18924.701037,3694.518094,7944.171032,-12002.398162
18924.703567,-4555.934230,-7523.034254,-7044.469734
18924.706097,-1033.699363,3503.092286,-11006.983960
18924.708627,3981.656806,14797.214958,-14758.929797
18924.711157,-1320.838075,-8001.598774,-6202.196179
18924.713686,191.425808,-1301.695494,-9686.145885
18924.716216,4460.221326,11006.983960,-13342.378818
18924.718746,-5627.918755,-8767.302006,-6317.051664
18924.721276,-918.843878,4364.508422,-11064.411702
18924.723806,2067.398726,3866.801322,-10872.985894
18924.726335,-1569.691626,-5513.063270,-7867.600709
18924.728865,631.705166,4077.369710,-10834.700733
18924.731395,-555.134843,1033.699363,-9743.573627
18924.733925,-2124.826469,-2220.539373,-9265.009107
18924.736455,842.273555,3713.660675,-11083.554283
18924.738984,1512.263883,-325.423874,-10202.995566
18924.741514,-1627.119368,-2201.396792,-8633.303941
18924.744044,-497.707101,3215.953574,-10624.132344
18924.746574,497.707101,2163.111630,-10298.708470
18924.749104,-1569.691626,-1933.400661,-9207.581365
18924.751633,172.283227,2277.967115,-10298.708470
18924.754163,-689.132909,325.423874,-10088.140082
18924.756693,842.273555,1052.841944,-10068.997501
18924.759223,-2756.531635,-1014.556782,-9226.723946
18924.761753,650.847747,-1646.261949,-9934.999435
18924.764270,3828.516160,8537.591037,-12232.109131
18924.766787,-5474.778109,-14644.074312,-5513.063270
18924.769305,2392.822600,8461.020714,-12978.669782
18924.771822,5723.631659,13648.660110,-14242.080115
18924.774339,-4153.940034,-12155.538808,-5781.059402
18924.776857,344.566454,1722.832272,-10949.556218
18924.779374,4517.649069,6814.758765,-12346.964616
18924.781891,-3273.381317,-9303.294269,-6967.899411
18924.784409,823.130974,2775.674216,-11026.126541
18924.786926,516.849682,2947.957443,-10853.843314
18924.789443,-2699.103893,-4536.791650,-8461.020714
18924.791961,1818.545176,1416.550979,-10547.562021
18924.794478,593.420005,1110.269686,-10298.708470
18924.796995,-1263.410333,-3177.668413,-9092.725880
18924.799513,1665.404530,1397.408398,-10509.276859
18924.802030,-306.281293,-210.568389,-10624.132344
18924.804547,-1397.408398,-3349.951640,-9035.298138
18924.807064,440.279358,-823.130974,-10011.569758
18924.809582,1799.402595,2220.539373,-10700.702667
18924.812099,-937.986459,-3866.801322,-8977.870395
18924.814616,-38.285162,2431.107762,-10413.563955
18924.817134,1148.554848,-1550.549045,-9724.431046
18924.819651,1780.260014,2775.674216,-10624.132344
18924.822168,-4058.227130,-3062.812928,-8595.018779
18924.824686,-497.707101,-153.140646,-9915.856854
18924.827203,3158.525832,9399.007173,-12691.531070
18924.829720,-6202.196179,-13265.808494,-5474.778109
18924.832238,2029.113565,11868.400096,-13495.519464
18924.834755,6010.770371,12040.683323,-13629.517530
18924.837272,-5474.778109,-11408.978157,-5723.631659
18924.839790,-823.130974,5283.352301,-11294.122672
18924.842307,1263.410333,5417.350366,-12059.825904
18924.844824,-3273.381317,-7331.608446,-7101.897477
18924.847342,1473.978722,5474.778109,-11523.833642
18924.849859,-459.421939,1071.984525,-10260.423309
18924.852376,-1014.556782,-3349.951640,-8843.872330
18924.854894,784.845813,3771.088418,-10949.556218
18924.857411,-1186.840010,1186.840010,-9915.856854
18924.859928,-2354.537438,-1875.972918,-9188.438784
18924.862446,1741.974853,3139.383251,-10547.562021
18924.864969,689.132909,880.558717,-10490.134278
18924.867493,-1186.840010,-784.845813,-9437.292334
18924.870016,-708.275490,440.279358,-9973.284597
18924.872540,-287.138712,2392.822600,-10394.421374
18924.875063,-976.271621,-1799.402595,-9379.864592
18924.877587,306.281293,3407.379382,-10490.134278
18924.880110,-3081.955509,-4173.082614,-8652.446522
18924.882633,3005.385186,3426.521963,-11313.265253
18924.885157,1244.267752,2584.248408,-10394.421374
18924.887680,-4804.787781,-12251.251712,-6393.621987
18924.890204,5723.631659,14242.080115,-14682.359474
18924.892727,-1052.841944,-9035.298138,-7025.327154
18924.895251,-3962.514226,-4307.080680,-8709.874264
18924.897774,4077.369710,10470.991698,-13686.945272
18924.900298,1588.834206,-1186.840010,-9954.142016
18924.902821,-3598.805190,-7714.460062,-7503.891674
18924.905345,2488.535504,6623.332957,-12174.681389
18924.907868,-612.562586,-1205.982590,-9475.577496
18924.910392,-2316.252277,-4019.941968,-8633.303941
18924.912915,2220.539373,3330.809059,-10987.841379
18924.915439,-172.283227,-210.568389,-9896.714274
18924.917962,-708.275490,-3637.090352,-8939.585234
18924.920485,2105.683888,2450.250342,-10853.843314
18924.923009,-1014.556782,-995.414202,-9724.431046
18924.925532,-861.416136,-2603.390989,-9284.151688
18924.928056,267.996131,689.132909,-10011.569758
18924.930579,1359.123237,1033.699363,-10451.849117
18924.933103,-459.421939,-2354.537438,-9322.436850
18924.935626,650.847747,1244.267752,-10049.854920
18924.938150,-497.707101,-1473.978722,-9552.147819
18924.940673,2622.533570,2335.394858,-10700.702667
18924.943197,-2143.969050,344.566454,-9418.149754
18924.945720,-3024.527766,-6317.051664,-8154.739421
18924.948244,4536.791650,14376.078181,-14146.367211
18924.950767,-3943.371645,-11140.982026,-6183.053598
18924.953291,-899.701298,3617.947771,-11006.983960
18924.955814,5225.924558,9801.001370,-13361.521398
18924.958337,-5436.492947,-12672.388490,-5359.922624
18924.960861,-1473.978722,-2163.111630,-8882.157491
18924.963384,3292.523898,9628.718142,-12882.956878
18924.965914,-3637.090352,-6202.196179,-7446.463931
18924.968442,-0.000000,1990.828403,-10470.991698
18924.970971,2143.969050,3598.805190,-11121.839445
18924.973500,-2928.814862,-2354.537438,-8346.165229
18924.976029,-153.140646,421.136778,-9934.999435
18924.978557,229.710970,3656.232933,-10853.843314
18924.981086,-1627.119368,-1014.556782,-9226.723946
18924.983615,-325.423874,-229.710970,-9533.005238
18924.986143,287.138712,4211.367776,-10758.130410
18924.988672,-842.273555,-746.560651,-9456.434915
18924.991201,-459.421939,363.709035,-9590.432981
18924.993729,957.129040,1895.115499,-10202.995566
18924.996258,-2163.111630,574.277424,-9801.001370
18924.998787,497.707101,-1780.260014,-9533.005238
18925.001315,1205.982590,5953.342629,-11294.122672
18925.003844,-4421.936165,-10202.995566,-6853.043926
18925.006373,4421.936165,8537.591037,-12959.527202
18925.008902,1799.402595,-1684.547110,-9647.860723
18925.011430,-5570.491013,-10317.851051,-6853.043926
18925.013959,4938.785846,13935.798822,-14510.076246
18925.016488,-2182.254211,-7752.745224,-6661.618118
18925.019016,-899.701298,-3273.381317,-9284.151688
18925.021545,4575.076811,8461.020714,-12863.814298
18925.024074,1225.125171,-976.271621,-9494.720077
18925.026602,-3579.662610,-5015.356170,-8116.454259
18925.029131,2086.541307,4287.938099,-11447.263318
18925.031660,-19.142581,669.990328,-10145.567824
18925.034188,-918.843878,-3235.096155,-8920.442653
18925.036717,1473.978722,1052.841944,-10356.136213
18925.039246,-38.285162,823.130974,-10279.565890
18925.041774,-1167.697429,-2718.246474,-9207.581365
18925.044303,899.701298,689.132909,-10413.563955
18925.046832,95.712904,-1473.978722,-9858.429112
18925.049361,-708.275490,-57.427742,-9896.714274
18925.051889,459.421939,-708.275490,-9839.286531
18925.054418,-995.414202,727.418070,-10049.854920
18925.056947,57.427742,-1741.974853,-9743.573627
18925.059475,2641.676150,3637.090352,-10987.841379
18925.062004,-4019.941968,-2813.959378,-8575.876198
18925.064533,-1684.547110,-1339.980656,-9609.575562
18925.067049,4019.941968,11140.982026,-13323.236237
18925.069566,-5761.916821,-12921.242040,-5417.350366
18925.072083,1186.840010,9360.722011,-12768.101394
18925.074599,3043.670347,4383.651003,-11619.546546
18925.077116,-3311.666478,-11160.124606,-6106.483275
18925.079633,1569.691626,11791.829773,-13265.808494
18925.082149,-1971.685822,-2009.970984,-8384.450390
18925.084666,-1339.980656,-3713.660675,-8614.161360
18925.087183,689.132909,3924.229064,-10738.987829
18925.089699,363.709035,1473.978722,-10719.845248
18925.092216,-976.271621,-1837.687757,-8863.014910
18925.094733,631.705166,1933.400661,-10336.993632
18925.097249,-1493.121302,612.562586,-9724.431046
18925.099766,-1225.125171,650.847747,-9877.571693
18925.102283,899.701298,1627.119368,-9992.427178
18925.104799,-803.988394,823.130974,-9609.575562
18925.107316,-267.996131,363.709035,-10107.282662
18925.109833,19.142581,2354.537438,-10528.419440
18925.112349,-306.281293,-1071.984525,-9475.577496
18925.114866,-1990.828403,1129.412267,-9896.714274
18925.117383,1301.695494,0.000000,-10049.854920
18925.119899,3292.523898,6240.481341,-11830.114934
18925.122416,-2909.672282,-6929.614250,-7752.745224
18925.124933,765.703232,-248.853550,-10528.419440
18925.127449,5283.352301,9073.583299,-12634.103328
18925.129966,-5972.485210,-15256.636898,-4823.930362
18925.132483,1148.554848,8901.300072,-12978.669782
18925.134999,1416.550979,2488.535504,-10375.278794
18925.137516,-4383.651003,-11447.263318,-6240.481341
18925.140033,4058.227130,8059.026517,-12882.956878
18925.142549,937.986459,-2124.826469,-9226.723946
18925.145066,-3043.670347,-4000.799387,-8537.591037
18925.147583,1263.410333,3828.516160,-11236.694930
18925.150100,631.705166,2124.826469,-10509.276859
18925.152616,-612.562586,-1646.261949,-9533.005238
18925.155133,1378.265818,-880.558717,-9705.288466
18925.157650,95.712904,-210.568389,-10030.712339
18925.160166,-727.418070,-880.558717,-9896.714274
18925.162683,1110.269686,-440.279358,-10068.997501
18925.165200,-1359.123237,-2029.113565,-9207.581365
18925.167723,-248.853550,191.425808,-10068.997501
18925.170246,669.990328,937.986459,-10336.993632
18925.172769,267.996131,-2067.398726,-9341.579430
18925.175292,-1071.984525,401.994197,-9934.999435
18925.177816,1646.261949,-382.851616,-9954.142016
18925.180339,440.279358,5168.496816,-10930.413637
18925.182862,-4517.649069,-6259.623922,-7446.463931
18925.185385,-1799.402595,957.129040,-10126.425243
18925.187908,4823.930362,10451.849117,-12710.673651
18925.190432,-5245.067139,-12825.529136,-5340.780043
18925.192955,727.418070,8078.169098,-12768.101394
18925.195478,899.701298,3196.810994,-11217.552349
18925.198001,-4287.938099,-8039.883936,-6776.473603
18925.200524,1856.830338,9609.575562,-12480.962682
18925.203048,38.285162,-2105.683888,-9207.581365
18925.205571,-746.560651,-2143.969050,-9073.583299
18925.208094,937.986459,3771.088418,-11045.269122
18925.210617,-1741.974853,-746.560651,-9456.434915
18925.213140,-1205.982590,0.000000,-9552.147819
18925.215664,-19.142581,1282.552914,-10049.854920
18925.218187,-650.847747,1148.554848,-9934.999435
18925.220710,-765.703232,1703.689691,-9992.427178
18925.223233,803.988394,382.851616,-10011.569758
18925.225756,-191.425808,650.847747,-10011.569758
18925.228280,-172.283227,1129.412267,-10107.282662
18925.230803,-2086.541307,172.283227,-9571.290400
18925.233326,1244.267752,497.707101,-10107.282662
18925.235849,-153.140646,3694.518094,-10566.704602
18925.238373,-2928.814862,-8824.729749,-7599.604578
18925.240896,5474.778109,10068.997501,-13208.380752
18925.243419,-1761.117434,-7082.754896,-7752.745224
18925.245942,-6431.907149,-13935.798822,-5723.631659
18925.248465,2967.100024,11504.691061,-13859.228499
18925.250989,229.710970,-1914.258080,-8958.727814
18925.253512,-3158.525832,-8116.454259,-7599.604578
18925.256035,4670.789715,8537.591037,-13016.954944
18925.258558,-287.138712,-5149.354235,-8307.880067
18925.261081,-2316.252277,-1607.976787,-9226.723946
18925.263605,1339.980656,3713.660675,-11236.694930
18925.266128,-631.705166,-842.273555,-9743.573627
18925.268657,38.285162,-1895.115499,-9399.007173
18925.271185,765.703232,1052.841944,-10298.708470
18925.273714,-210.568389,-95.712904,-10279.565890
18925.276243,-191.425808,-1454.836141,-9858.429112
18925.278771,516.849682,-1607.976787,-9686.145885
18925.281300,-459.421939,459.421939,-9954.142016
18925.283829,-516.849682,-478.564520,-9839.286531
18925.286358,-689.132909,-325.423874,-9858.429112
18925.288886,1703.689691,-497.707101,-10107.282662
18925.291415,-918.843878,1339.980656,-10183.852986
18925.293944,-1435.693560,-4996.213589,-8595.018779
18925.296473,3943.371645,10336.993632,-12902.099459
18925.299001,-4766.502619,-7044.469734,-7101.897477
18925.301530,-1493.121302,995.414202,-10145.567824
18925.304059,4498.506488,10547.562021,-12768.101394
18925.306588,-5417.350366,-12500.105262,-5111.069074
18925.309116,-803.988394,-3541.377448,-8958.727814
18925.311645,3560.520029,11255.837510,-13150.953010
18925.314174,-4689.932296,-7101.897477,-6853.043926
18925.316702,-593.420005,3139.383251,-10585.847182
18925.319231,1722.832272,3330.809059,-11504.691061
18925.321760,-995.414202,-3311.666478,-8518.448456
18925.324289,-421.136778,918.843878,-10011.569758
18925.326817,-1033.699363,1263.410333,-10202.995566
18925.329346,-689.132909,1339.980656,-10049.854920
18925.331875,-248.853550,95.712904,-9609.575562
18925.334404,-1148.554848,1244.267752,-9877.571693
18925.336932,382.851616,2986.242605,-10585.847182
18925.339461,191.425808,-1301.695494,-10222.138147
18925.341990,-1397.408398,-899.701298,-9360.722011
18925.344519,-555.134843,1416.550979,-10260.423309
18925.347047,-650.847747,3311.666478,-10336.993632
18925.349576,-3407.379382,-6163.911018,-7982.456194
18925.352105,4689.932296,6431.907149,-12212.966550
18925.354633,-210.568389,-555.134843,-9552.147819
18925.357162,-3924.229064,-10872.985894,-7101.897477
18925.359691,6470.192310,15160.923994,-14931.213024
18925.362220,-2794.816797,-11370.692995,-6221.338760
18925.364748,-3062.812928,-1971.685822,-9552.147819
18925.367277,4077.369710,11370.692995,-13361.521398
18925.369811,-3158.525832,-12232.109131,-6317.051664
18925.372345,-3215.953574,-6814.758765,-7982.456194
18925.374879,2775.674216,7121.040058,-12270.394293
18925.377413,-516.849682,-2373.680019,-9169.296203
18925.379946,-1741.974853,-2507.678085,-9054.440718
18925.382480,880.558717,2009.970984,-10528.419440
18925.385014,153.140646,478.564520,-10356.136213
18925.387548,1148.554848,-1990.828403,-9437.292334
18925.390082,325.423874,-1033.699363,-9724.431046
18925.392616,-784.845813,-1071.984525,-10126.425243
18925.395150,-765.703232,210.568389,-10145.567824
18925.397683,-95.712904,-1914.258080,-9092.725880
18925.400217,899.701298,669.990328,-10260.423309
18925.402751,995.414202,1167.697429,-10758.130410
18925.405285,-2297.109696,-2469.392923,-9073.583299
18925.407819,937.986459,-1493.121302,-9820.143950
18925.410353,2220.539373,9609.575562,-12346.964616
18925.412887,-6221.338760,-12059.825904,-5895.914886
18925.415421,1895.115499,10604.989763,-13304.093656
18925.417954,3005.385186,2909.672282,-10145.567824
18925.420488,-6144.768437,-11255.837510,-5895.914886
18925.423022,4670.789715,13227.523333,-14280.365277
18925.425556,-3885.943902,-5015.356170,-7905.885870
18925.428090,-1359.123237,-2871.387120,-9092.725880
18925.430624,3158.525832,9705.288466,-12768.101394
18925.433158,-2660.818731,-4957.928427,-7829.315547
18925.435691,-421.136778,-3139.383251,-8805.587168
18925.438225,976.271621,3158.525832,-10815.558152
18925.440759,-1550.549045,363.709035,-9647.860723
18925.443293,-1473.978722,-612.562586,-9303.294269
18925.445827,57.427742,2316.252277,-10317.851051
18925.448361,-1110.269686,1895.115499,-9973.284597
18925.450899,-210.568389,574.277424,-9647.860723
18925.453437,612.562586,535.992262,-10202.995566
18925.455975,-727.418070,823.130974,-10088.140082
18925.458513,-497.707101,19.142581,-9858.429112
18925.461051,-1435.693560,3024.527766,-10107.282662
18925.463590,-2584.248408,-4575.076811,-8537.591037
18925.466128,4115.654872,7025.327154,-12308.679454
18925.468666,2641.676150,5264.209720,-11408.978157
18925.471204,-5283.352301,-14184.652373,-5570.491013
18925.473742,3694.518094,12155.538808,-14108.082050
18925.476280,478.564520,-4134.797453,-8843.872330
18925.478818,-4938.785846,-8154.739421,-7178.467800
18925.481357,4498.506488,12595.818166,-13974.083984
18925.483895,-1091.127106,-7829.315547,-7657.032320
18925.486433,-421.136778,-2794.816797,-9590.432981
18925.488971,2143.969050,5493.920690,-11830.114934
18925.491509,-1990.828403,-3694.518094,-8499.305875
18925.494047,-401.994197,-650.847747,-9552.147819
18925.496585,823.130974,2009.970984,-10470.991698
18925.499123,-401.994197,95.712904,-10164.710405
18925.501662,133.998066,-1531.406464,-9705.288466
18925.504200,1416.550979,-248.853550,-10068.997501
18925.506738,-803.988394,-2603.390989,-9667.003304
18925.509276,-555.134843,861.416136,-10088.140082
18925.511814,421.136778,-421.136778,-9705.288466
18925.514352,-1110.269686,-1148.554848,-9513.862658
18925.516890,2373.680019,727.418070,-10566.704602
18925.519428,-957.129040,248.853550,-9858.429112
18925.521967,-1971.685822,-5283.352301,-8461.020714
18925.524505,3732.803256,11485.548480,-13016.954944
18925.527043,-4594.219392,-7523.034254,-7063.612315
18925.529581,-2029.113565,440.279358,-9705.288466
18925.532119,3809.373579,15524.633029,-14969.498186
18925.534657,57.427742,-5302.494882,-7503.891674
18925.537195,-1205.982590,-4670.789715,-8614.161360
18925.539734,3158.525832,11179.267187,-13112.667848
18925.542272,-4153.940034,-5800.201982,-6546.762634
18925.544810,-19.142581,2029.113565,-9762.716208
18925.547348,1703.689691,3407.379382,-11542.976222
18925.549886,-727.418070,-1990.828403,-8767.302006
18925.552428,535.992262,650.847747,-9954.142016
18925.554970,-1933.400661,823.130974,-9858.429112
18925.557511,-1607.976787,1263.410333,-10030.712339
18925.560053,574.277424,1952.543242,-10145.567824
18925.562595,574.277424,1531.406464,-9781.858789
18925.565137,-803.988394,-1665.404530,-9303.294269
18925.567679,114.855485,3101.098090,-10872.985894
18925.570220,287.138712,-114.855485,-9858.429112
18925.572762,-3369.094221,-535.992262,-9188.438784
18925.575304,976.271621,1071.984525,-10222.138147
18925.577846,823.130974,5187.639397,-11045.269122
18925.580387,-3981.656806,-11140.982026,-6757.331022
18925.582929,5245.067139,9035.298138,-13284.951075
18925.585471,1607.976787,-1761.117434,-9801.001370
18925.588013,-6508.477472,-11428.120738,-6527.620053
18925.590555,5225.924558,15026.925928,-14969.498186
18925.593096,-1588.834206,-7427.321350,-11351.550414
18925.595638,-4249.652938,-13189.238171,-5666.203917
18925.598180,3962.514226,7427.321350,-12921.242040
18925.600722,1818.545176,-440.279358,-10030.712339
18925.603263,-3579.662610,-5666.203917,-7925.028451
18925.605805,401.994197,3694.518094,-10911.271056
18925.608347,-631.705166,593.420005,-10068.997501
18925.610889,1359.123237,-1454.836141,-9571.290400
18925.613430,1990.828403,-440.279358,-9781.858789
18925.615972,-1454.836141,-2143.969050,-9590.432981
18925.618514,459.421939,191.425808,-10624.132344
18925.621056,-382.851616,-248.853550,-9858.429112
18925.623598,-2029.113565,-3713.660675,-8518.448456
18925.626139,-1033.699363,1378.265818,-10126.425243
18925.628681,3292.523898,1799.402595,-10853.843314
18925.631223,-2239.681954,-2928.814862,-8997.012976
18925.633765,-1014.556782,-2679.961312,-9379.864592
18925.636306,3828.516160,10872.985894,-13093.525267
18925.638848,-5206.781978,-8748.159426,-6546.762634
18925.641390,-1703.689691,2565.105827,-10509.276859
18925.643932,5513.063270,10815.558152,-12902.099459
18925.646474,-5723.631659,-13438.091722,-4766.502619
18925.649015,191.425808,7657.032320,-12595.818166
18925.651557,325.423874,3311.666478,-11791.829773
18925.654102,-4115.654872,-8173.882002,-6738.188442
18925.656648,1282.552914,9207.581365,-9839.286531
18925.659193,1895.115499,4651.647134,-12193.823970
18925.661738,-1875.972918,-3407.379382,-8231.309744
18925.664283,-535.992262,-57.427742,-9896.714274
18925.666828,-899.701298,2565.105827,-10451.849117
18925.669373,-631.705166,1110.269686,-9934.999435
18925.671919,-899.701298,-19.142581,-9379.864592
18925.674464,421.136778,2775.674216,-10222.138147
18925.677009,803.988394,1397.408398,-10241.280728
18925.679554,-995.414202,-1339.980656,-9456.434915
18925.682099,918.843878,1493.121302,-10451.849117
18925.684644,-2411.965181,1895.115499,-10011.569758
18925.687190,-937.986459,-3541.377448,-8499.305875
18925.689735,3809.373579,6163.911018,-11964.113000
18925.692280,-708.275490,-2928.814862,-8997.012976
18925.694825,-1607.976787,-6355.336826,-8786.444587
18925.697370,5819.344563,11198.409768,-13686.945272
18925.699916,-4804.787781,-12863.814298,-5570.491013
18925.702461,-861.416136,3866.801322,-11485.548480
18925.705006,2641.676150,6259.623922,-11332.407834
18925.707551,-3139.383251,-11045.269122,-6431.907149
18925.710096,3330.809059,6049.055533,-12442.677520
18925.712641,1225.125171,-937.986459,-9954.142016
18925.715187,-3369.094221,-4517.649069,-8422.735552
18925.717732,708.275490,3273.381317,-10719.845248
18925.720277,-306.281293,478.564520,-9934.999435
18925.722822,-133.998066,-1550.549045,-9686.145885
18925.725367,1320.838075,-976.271621,-9801.001370
18925.727913,842.273555,-823.130974,-10126.425243
18925.730458,-2124.826469,-1990.828403,-9705.288466
18925.733003,-267.996131,574.277424,-10088.140082
18925.735548,1148.554848,-191.425808,-9762.716208
18925.738093,-76.570323,-229.710970,-9686.145885
18925.740638,1473.978722,-1416.550979,-10030.712339
18925.743184,1875.972918,3522.234867,-11121.839445
18925.745729,-5225.924558,-5091.926493,-7829.315547
18925.748274,-210.568389,3062.812928,-10758.130410
18925.750819,2201.396792,7446.463931,-11849.257515
18925.753364,-2335.394858,-11849.257515,-6814.758765
18925.755912,-1397.408398,1378.265818,-10202.995566
18925.758460,4977.071008,9877.571693,-13208.380752
18925.761008,-4441.078746,-10911.271056,-6125.625856
18925.763556,-229.710970,5819.344563,-11447.263318
18925.766104,1359.123237,4173.082614,-10719.845248
18925.768652,-2813.959378,-4862.215523,-7599.604578
18925.771200,459.421939,3847.658741,-11006.983960
18925.773748,-937.986459,114.855485,-9877.571693
18925.776296,-708.275490,-1052.841944,-9628.718142
18925.778844,593.420005,2086.541307,-10375.278794
18925.781392,-1933.400661,344.566454,-9571.290400
18925.783940,-1301.695494,2488.535504,-10049.854920
18925.786488,957.129040,1473.978722,-10088.140082
18925.789036,-57.427742,325.423874,-9839.286531
18925.791584,-153.140646,76.570323,-10011.569758
18925.794132,-2258.824534,1167.697429,-10088.140082
18925.796680,861.416136,-287.138712,-9781.858789
18925.799228,-267.996131,4268.795518,-10432.706536
18925.801776,-2545.963246,-8614.161360,-7599.604578
18925.804323,5666.203917,9475.577496,-13284.951075
18925.806871,-1339.980656,-7216.752962,-8116.454259
18925.809419,-4326.223261,-5359.922624,-8882.157491
18925.811967,5589.633594,12519.247843,-13974.083984
18925.814515,-3503.092286,-11255.837510,-5991.627790
18925.817063,-3503.092286,-8958.727814,-6872.186507
18925.819611,4881.358104,9245.866526,-13284.951075
18925.822159,-114.855485,-5187.639397,-8441.878133
18925.824707,-2488.535504,-3177.668413,-9054.440718
18925.827255,803.988394,4613.361973,-11428.120738
18925.829803,-1167.697429,-1703.689691,-9265.009107
18925.832351,1646.261949,-267.996131,-9934.999435
18925.834899,1952.543242,344.566454,-10107.282662
18925.837447,-1301.695494,-3120.240670,-9265.009107
18925.839995,-267.996131,-478.564520,-10356.136213
18925.842543,267.996131,899.701298,-10356.136213
18925.845091,-880.558717,-2833.101958,-9016.155557
18925.847639,-210.568389,2029.113565,-10183.852986
18925.850187,1359.123237,-880.558717,-10030.712339
18925.852735,1933.400661,2067.398726,-10777.272990
18925.855283,-4441.078746,-2373.680019,-8614.161360
18925.857833,-1722.832272,-937.986459,-9456.434915
18925.860383,3330.809059,10758.130410,-12672.388490
18925.862933,-4747.360038,-11715.259450,-5781.059402
18925.865483,1550.549045,8690.731683,-12404.392358
18925.868033,2852.244539,4058.227130,-11753.544611
18925.870583,-3579.662610,-10356.136213,-6508.477472
18925.873133,976.271621,10279.565890,-13246.665914
18925.875683,-1569.691626,-1301.695494,-9667.003304
18925.878233,-1952.543242,-2928.814862,-8652.446522
18925.880783,-267.996131,2565.105827,-10528.419440
18925.883334,38.285162,1607.976787,-10624.132344
18925.885884,-497.707101,-459.421939,-9399.007173
18925.888434,-555.134843,210.568389,-9705.288466
18925.890984,-1550.549045,1665.404530,-10049.854920
18925.893534,-95.712904,3713.660675,-10566.704602
18925.896084,-0.000000,-1990.828403,-8977.870395
18925.898634,-133.998066,1301.695494,-10145.567824
18925.901184,957.129040,2775.674216,-10911.271056
18925.903734,-3407.379382,-2086.541307,-9073.583299
18925.906284,574.277424,-267.996131,-9934.999435
18925.908834,1971.685822,7484.749093,-11696.116869
18925.911384,-4383.651003,-11849.257515,-6202.196179
18925.913935,-842.273555,-4804.787781,-9265.009107
18925.916485,5991.627790,12270.394293,-14108.082050
18925.919035,-5647.061336,-15026.925928,-4689.932296
18925.921585,38.285162,4555.934230,-11868.400096
18925.924135,2641.676150,6853.043926,-11696.116869
18925.926685,-4173.082614,-11542.976222,-5991.627790
18925.929235,3369.094221,5915.057467,-12308.679454
18925.931785,2143.969050,650.847747,-10279.565890
18925.934335,-3407.379382,-5895.914886,-8097.311678
18925.936885,899.701298,2986.242605,-10815.558152
18925.939435,-784.845813,708.275490,-9992.427178
18925.941986,229.710970,-2067.398726,-9399.007173
18925.944536,1780.260014,555.134843,-10164.710405
18925.947086,1588.834206,-1225.125171,-10011.569758
18925.949636,-2641.676150,-1397.408398,-9686.145885
18925.952186,-497.707101,38.285162,-10126.425243
18925.954736,-0.000000,0.000000,-9934.999435
18925.957286,2067.398726,-210.568389,-9915.856854
18925.959840,-1320.838075,-555.134843,-9628.718142
18925.962392,765.703232,-2182.254211,-9705.288466
18925.964944,1205.982590,8212.167163,-12098.111066
18925.967496,-6183.053598,-10317.851051,-6489.334891
18925.970048,2163.111630,10375.278794,-12691.531070
18925.972600,2718.246474,2431.107762,-9954.142016
18925.975153,-5245.067139,-9992.427178,-6259.623922
18925.977705,-689.132909,4575.076811,-11600.403965
18925.980257,1971.685822,5934.200048,-11581.261384
18925.982809,-5340.780043,-8690.731683,-6565.905214
18925.985361,765.703232,7637.889739,-12174.681389
18925.987913,803.988394,1091.127106,-10662.417506
18925.990466,-555.134843,-3560.520029,-8556.733618
18925.993018,669.990328,3235.096155,-11026.126541
18925.995570,-1722.832272,516.849682,-9724.431046
18925.998122,-1761.117434,-76.570323,-9552.147819
18926.000674,497.707101,2871.387120,-10260.423309
18926.003226,191.425808,746.560651,-9781.858789
18926.005778,-57.427742,459.421939,-9801.001370
18926.008331,459.421939,1607.976787,-10145.567824
18926.010883,-2220.539373,497.707101,-9973.284597
18926.013435,650.847747,-95.712904,-10088.140082
18926.015987,-440.279358,4115.654872,-10413.563955
18926.018539,-2277.967115,-8920.442653,-7293.323285
18926.021091,5781.059402,10624.132344,-13361.521398
18926.023644,-1531.406464,-7963.313613,-7465.606512
18926.026196,-4230.510357,-5168.496816,-8958.727814
18926.028748,5436.492947,12748.958813,-14108.082050
18926.031300,-3522.234867,-11983.255581,-5876.772306
18926.033852,1435.693560,3005.385186,-11121.839445
18926.036404,3809.373579,6833.901346,-12136.396227
18926.038956,-4383.651003,-10183.852986,-6853.043926
18926.041509,-2775.674216,-3483.949706,-9073.583299
18926.044061,861.416136,4096.512291,-11428.120738
18926.046613,-267.996131,-535.992262,-9820.143950
18926.049165,1416.550979,-1359.123237,-9494.720077
18926.051717,957.129040,-880.558717,-9820.143950
18926.054269,76.570323,-746.560651,-10260.423309
18926.056822,-689.132909,-19.142581,-10068.997501
18926.059374,-1895.115499,-3235.096155,-9054.440718
18926.061911,497.707101,1856.830338,-10719.845248
18926.064448,1952.543242,995.414202,-10202.995566
18926.066985,-1780.260014,-4823.930362,-8327.022648
18926.069522,3062.812928,3885.943902,-11657.831707
18926.072059,-1225.125171,3388.236802,-10241.280728
18926.074596,-6565.905214,-11294.122672,-5934.200048
18926.077133,-133.998066,6259.623922,-11542.976222
18926.079670,5015.356170,8767.302006,-12040.683323
18926.082207,-6087.340694,-13533.804626,-4613.361973
18926.084745,1397.408398,10490.134278,-12806.386555
18926.087282,-1493.121302,516.849682,-10413.563955
18926.089819,-3177.668413,-7733.602643,-7408.178770
18926.092356,2029.113565,9686.145885,-12519.247843
18926.094893,-880.558717,-1761.117434,-9131.011042
18926.097430,38.285162,-2450.250342,-8977.870395
18926.099967,421.136778,3656.232933,-11121.839445
18926.102504,-1799.402595,-248.853550,-9743.573627
18926.105041,-2239.681954,172.283227,-9571.290400
18926.107578,191.425808,1627.119368,-10011.569758
18926.110115,803.988394,1052.841944,-9954.142016
18926.112652,-555.134843,784.845813,-9781.858789
18926.115190,555.134843,497.707101,-9858.429112
18926.117727,-2316.252277,1205.982590,-10030.712339
18926.120264,-19.142581,-1435.693560,-9647.860723
18926.122801,478.564520,5417.350366,-10930.413637
18926.125338,-3235.096155,-9801.001370,-7140.182638
18926.127875,5206.781978,8863.014910,-13016.954944
18926.130412,803.988394,-3598.805190,-9207.581365
18926.132949,-6029.912952,-9590.432981,-7408.178770
18926.135486,5283.352301,14146.367211,-14758.929797
18926.138023,1933.400661,4000.799387,-10777.272990
18926.140560,-4058.227130,-11638.689126,-5915.057467
18926.143097,4575.076811,8480.163294,-12997.812363
18926.145635,1244.267752,-1646.261949,-9533.005238
18926.148172,-4058.227130,-5647.061336,-8193.024582
18926.150709,267.996131,3139.383251,-11102.696864
18926.153246,-0.000000,401.994197,-10068.997501
18926.155783,2009.970984,-1148.554848,-9705.288466
18926.158320,1339.980656,-1703.689691,-9552.147819
18926.160857,-937.986459,-1359.123237,-9954.142016
18926.163398,363.709035,2086.541307,-10853.843314
18926.165939,-612.562586,-3024.527766,-9150.153622
18926.168480,-937.986459,-823.130974,-8939.585234
18926.171021,2297.109696,574.277424,-10375.278794
18926.173562,2239.681954,3713.660675,-10892.128475
18926.176102,-5819.344563,-7637.889739,-7197.610381
18926.178643,937.986459,7044.469734,-12327.822035
18926.181184,478.564520,4153.940034,-10336.993632
18926.183725,-5398.207786,-11906.685258,-6068.198114
18926.186266,4402.793584,15735.201418,-14969.498186
18926.188807,382.851616,-4230.510357,-7331.608446
18926.191348,-1703.689691,-6049.055533,-8288.737486
18926.193889,3215.953574,11504.691061,-13399.806560
18926.196430,-4632.504554,-5972.485210,-6910.471669
18926.198970,-555.134843,229.710970,-9667.003304
18926.201511,1684.547110,5781.059402,-11581.261384
18926.204052,-478.564520,382.851616,-9934.999435
18926.206593,-1550.549045,-1646.261949,-9303.294269
18926.209134,-535.992262,2297.109696,-10222.138147
18926.211675,-1205.982590,2220.539373,-10241.280728
18926.214216,-229.710970,76.570323,-9609.575562
18926.216757,727.418070,478.564520,-9820.143950
18926.219298,95.712904,2507.678085,-10279.565890
18926.221838,-1856.830338,-746.560651,-9609.575562
18926.224379,210.568389,2928.814862,-10585.847182
18926.226920,-2507.678085,-1588.834206,-9303.294269
18926.229461,2143.969050,-803.988394,-9973.284597
18926.232002,3292.523898,6049.055533,-12997.812363
18926.234543,-2431.107762,-10241.280728,-6891.329088
18926.237084,-3273.381317,-1225.125171,-10202.995566
18926.239625,4843.072942,9877.571693,-13246.665914
18926.242166,-4460.221326,-12787.243974,-5742.774240
18926.244706,2411.965181,6278.766502,-12327.822035
18926.247247,2890.529701,4058.227130,-11064.411702
18926.249788,-4402.793584,-9820.143950,-6872.186507
18926.252329,1684.547110,5187.639397,-11887.542677
18926.254870,440.279358,1052.841944,-10451.849117
18926.257411,-1990.828403,-4096.512291,-8595.018779
18926.259952,957.129040,1110.269686,-10432.706536
18926.262493,1282.552914,1071.984525,-10681.560086
18926.265037,-842.273555,-1550.549045,-9743.573627
18926.267581,-1205.982590,-1856.830338,-9303.294269
18926.270125,727.418070,918.843878,-10451.849117
18926.272668,-1167.697429,-363.709035,-9839.286531
18926.275212,1512.263883,-2354.537438,-9552.147819
18926.277756,784.845813,3732.803256,-10815.558152
18926.280300,-2718.246474,-6240.481341,-7963.313613
18926.282844,2565.105827,9437.292334,-12480.962682
18926.285388,-3349.951640,-3464.807125,-8212.167163
18926.287932,-3617.947771,-3081.955509,-8805.587168
18926.290476,6049.055533,13093.525267,-13725.230434
18926.293020,-3560.520029,-11217.552349,-5800.201982
18926.295564,-612.562586,3885.943902,-11045.269122
18926.298108,1875.972918,10872.985894,-13150.953010
18926.300652,-3675.375514,-4747.360038,-8499.305875
18926.303196,-746.560651,-593.420005,-9379.864592
18926.305740,1684.547110,5723.631659,-11466.405899
18926.308284,-1454.836141,-2641.676150,-8901.300072
18926.310828,229.710970,1110.269686,-10183.852986
18926.313372,-1320.838075,1780.260014,-10183.852986
18926.315915,-1990.828403,1205.982590,-9628.718142
18926.318459,727.418070,976.271621,-9992.427178
18926.321003,421.136778,574.277424,-9801.001370
18926.323547,-229.710970,1225.125171,-9877.571693
18926.326091,-1320.838075,210.568389,-9781.858789
18926.328635,957.129040,689.132909,-10298.708470
18926.331179,-1129.412267,2852.244539,-10260.423309
18926.333723,-2258.824534,-8212.167163,-7695.317482
18926.336267,5857.629725,10049.854920,-13093.525267
18926.338811,-1397.408398,-8422.735552,-7389.036189
18926.341355,-4115.654872,-3541.377448,-9456.434915
18926.343899,5015.356170,10777.272990,-13572.089787
18926.346443,-3598.805190,-11236.694930,-6240.481341
18926.348987,1550.549045,3503.092286,-11255.837510
18926.351531,3369.094221,5704.489078,-11753.544611
18926.354075,-3522.234867,-9131.011042,-7101.897477
18926.356619,880.558717,3254.238736,-11313.265253
18926.359162,1071.984525,2029.113565,-10796.415571
18926.361706,-0.000000,-976.271621,-9686.145885
18926.364250,191.425808,-2794.816797,-9092.725880
18926.366797,1761.117434,497.707101,-10585.847182
18926.369343,-669.990328,-19.142581,-10183.852986
18926.371890,-1741.974853,-2756.531635,-8997.012976
18926.374436,765.703232,1052.841944,-10624.132344
18926.376983,421.136778,1052.841944,-10356.136213
18926.379529,497.707101,-4785.645200,-8920.442653
18926.382075,3043.670347,5666.203917,-11562.118803
18926.384622,-4613.361973,-4058.227130,-8078.169098
18926.387168,-1225.125171,918.843878,-9934.999435
18926.389715,2258.824534,8843.872330,-12595.818166
18926.392261,-1550.549045,-7484.749093,-7044.469734
18926.394808,-1799.402595,765.703232,-10183.852986
18926.397354,4977.071008,10336.993632,-13093.525267
18926.399900,-4709.074877,-9934.999435,-5723.631659
18926.402447,-287.138712,4173.082614,-11140.982026
18926.404993,976.271621,4307.080680,-11026.126541
18926.407540,-2354.537438,-5015.356170,-7944.171032
18926.410086,1473.978722,4249.652938,-11179.267187
18926.412633,-784.845813,765.703232,-9934.999435
18926.415179,-1780.260014,-650.847747,-9456.434915
18926.417725,38.285162,2794.816797,-10432.706536
18926.420272,-669.990328,784.845813,-9781.858789
18926.422818,-574.277424,-38.285162,-9896.714274
18926.425365,38.285162,1933.400661,-10088.140082
18926.427911,-574.277424,57.427742,-9762.716208
18926.430458,-1512.263883,2871.387120,-10317.851051
18926.433004,-2584.248408,-3388.236802,-9016.155557
18926.435550,3541.377448,4421.936165,-11523.833642
18926.438097,-287.138712,-1741.974853,-9150.153622
18926.440643,-2143.969050,-7446.463931,-8212.167163
18926.443190,5704.489078,11849.257515,-13974.083984
18926.445736,-3828.516160,-11868.400096,-6183.053598
18926.448283,-2124.826469,95.712904,-10413.563955
18926.450829,3311.666478,9073.583299,-12500.105262
18926.453375,-3081.955509,-10796.415571,-6412.764568
18926.455922,2737.389054,3828.516160,-8384.450390
18926.458468,3235.096155,7006.184573,-12251.251712
18926.461015,-976.271621,-3962.514226,-9016.155557
18926.463561,-1263.410333,-2163.111630,-9207.581365
18926.466108,1359.123237,2354.537438,-10719.845248
18926.468656,631.705166,-1167.697429,-9858.429112
18926.471205,-784.845813,-3771.088418,-8901.300072
18926.473754,267.996131,1761.117434,-10470.991698
18926.476303,114.855485,172.283227,-10145.567824
18926.478852,-1914.258080,-2699.103893,-9092.725880
18926.481401,2124.826469,-172.283227,-10202.995566
18926.483950,459.421939,2967.100024,-10662.417506
18926.486499,-2622.533570,-7503.891674,-7618.747158
18926.489048,-363.709035,2641.676150,-10470.991698
18926.491597,1684.547110,7982.456194,-11925.827838
18926.494145,-6087.340694,-11753.544611,-5972.485210
18926.496694,3522.234867,12212.966550,-13686.945272
18926.499243,1493.121302,-669.990328,-9647.860723
18926.501792,-2718.246474,-6910.471669,-7982.456194
18926.504341,1741.974853,9896.714274,-12787.243974
18926.506890,-3120.240670,-4058.227130,-8748.159426
18926.509439,-1761.117434,-1167.697429,-9207.581365
18926.511988,2909.672282,5781.059402,-11562.118803
18926.514537,-937.986459,-1301.695494,-9073.583299
18926.517086,-1588.834206,-1205.982590,-9399.007173
18926.519634,-555.134843,4096.512291,-10719.845248
18926.522183,535.992262,4019.941968,-11006.983960
18926.524732,-555.134843,-1741.974853,-9284.151688
18926.527281,-516.849682,1033.699363,-9820.143950
18926.529830,708.275490,2105.683888,-10451.849117
18926.532379,-1990.828403,1856.830338,-9877.571693
18926.534928,-2201.396792,-4230.510357,-8652.446522
18926.537477,3483.949706,7255.038123,-12289.536874
18926.540026,-2067.398726,-5685.346498,-8078.169098
18926.542574,19.142581,-3924.229064,-9360.722011
18926.545123,5895.914886,10490.134278,-13495.519464
18926.547672,-5800.201982,-13840.085918,-5111.069074
18926.550221,-248.853550,4077.369710,-11791.829773
18926.552770,4192.225195,11944.970419,-13706.087853
18926.555319,-937.986459,-6680.760699,-7695.317482
18926.557868,-516.849682,-2813.959378,-9360.722011
18926.560417,3560.520029,6872.186507,-12327.822035
18926.562966,-2239.681954,-5723.631659,-8307.880067
18926.565515,-344.566454,-727.418070,-9801.001370
18926.568063,1780.260014,2718.246474,-10815.558152
18926.570614,19.142581,-3196.810994,-9150.153622
18926.573165,-133.998066,-1837.687757,-9494.720077
18926.575716,306.281293,1512.263883,-10375.278794
18926.578267,-574.277424,-1205.982590,-9858.429112
18926.580818,-669.990328,-421.136778,-9724.431046
18926.583368,1493.121302,-1933.400661,-9896.714274
18926.585919,2737.389054,4039.084549,-11217.552349
18926.588470,-3828.516160,-2048.256146,-8595.018779
18926.591021,-2029.113565,-2124.826469,-9284.151688
18926.593572,3426.521963,12232.109131,-13457.234302
18926.596122,-5340.780043,-11600.403965,-5800.201982
18926.598673,1148.554848,7791.030386,-12098.111066
18926.601224,4211.367776,5723.631659,-11791.829773
18926.603775,-4192.225195,-10183.852986,-6183.053598
18926.606326,555.134843,8518.448456,-12672.388490
18926.608877,-1071.984525,-38.285162,-9609.575562
18926.611427,-3081.955509,-4517.649069,-7886.743290
18926.613978,2718.246474,5953.342629,-11562.118803
18926.616529,1167.697429,3541.377448,-10758.130410
18926.619080,-2182.254211,-899.701298,-9016.155557
18926.621631,-861.416136,287.138712,-9667.003304
18926.624181,593.420005,3713.660675,-10853.843314
18926.626732,-784.845813,-823.130974,-9647.860723
18926.629283,133.998066,746.560651,-9762.716208
18926.631834,-421.136778,1512.263883,-10145.567824
18926.634385,-229.710970,1952.543242,-10336.993632
18926.636936,-2603.390989,-1569.691626,-9399.007173
18926.639486,2143.969050,-516.849682,-10183.852986
18926.642037,2852.244539,6087.340694,-11485.548480
18926.644588,-5015.356170,-14222.937534,-5455.635528
18926.647139,2833.101958,9379.864592,-13514.662045
18926.649690,5245.067139,11370.692995,-13820.943338
18926.652240,-4096.512291,-12327.822035,-5838.487144
18926.654791,1588.834206,3598.805190,-11408.978157
18926.657342,3081.955509,6795.616184,-11964.113000
18926.659893,-4364.508422,-10336.993632,-6757.331022
18926.662444,2277.967115,4498.506488,-11696.116869
18926.664995,976.271621,1627.119368,-10719.845248
18926.667545,-2928.814862,-5072.783912,-8327.022648
18926.670096,1818.545176,1416.550979,-10662.417506
18926.672649,1052.841944,210.568389,-10470.991698
18926.675201,-1799.402595,-3292.523898,-8939.585234
18926.677753,1071.984525,957.129040,-10202.995566
18926.680306,95.712904,-363.709035,-10585.847182
18926.682858,76.570323,-2641.676150,-9686.145885
18926.685410,-535.992262,1569.691626,-10336.993632
18926.687962,-95.712904,-4747.360038,-8652.446522
18926.690515,2928.814862,9647.860723,-12538.390424
18926.693067,-4651.647134,-6355.336826,-7350.751027
18926.695619,-1875.972918,2105.683888,-10317.851051
18926.698172,5302.494882,10336.993632,-12672.388490
18926.700724,-5130.211654,-11830.114934,-5455.635528
18926.703276,401.994197,7369.893608,-12327.822035
18926.705829,823.130974,3139.383251,-10719.845248
18926.708381,-3790.230998,-8384.450390,-6585.047795
18926.710933,1914.258080,7982.456194,-12251.251712
18926.713486,2679.961312,5206.781978,-11447.263318
18926.716038,-2086.541307,-2488.535504,-8690.731683
18926.718590,-401.994197,325.423874,-9705.288466
18926.721143,-287.138712,4019.941968,-10719.845248
18926.723695,-1014.556782,-516.849682,-9513.862658
18926.726247,-516.849682,-229.710970,-9762.716208
18926.728800,287.138712,3924.229064,-10700.702667
18926.731352,-1301.695494,-2143.969050,-9150.153622
18926.733904,-497.707101,3713.660675,-10356.136213
18926.736457,-1856.830338,-2967.100024,-9054.440718
18926.739009,2545.963246,4153.940034,-11428.120738
18926.741561,-593.420005,-2335.394858,-9092.725880
18926.744114,-1435.693560,-6527.620053,-5895.914886
18926.746666,2833.101958,9245.866526,-13514.662045
18926.749218,1301.695494,-1895.115499,-9379.864592
18926.751771,-5781.059402,-10547.562021,-6565.905214
18926.754323,4019.941968,12251.251712,-13878.371080
18926.756875,-287.138712,-4977.071008,-8327.022648
18926.759428,-1359.123237,-4383.651003,-8633.303941
18926.761980,4058.227130,7465.606512,-12289.536874
18926.764532,-2737.389054,-5761.916821,-8250.452325
18926.767085,-689.132909,-1780.260014,-9399.007173
18926.769637,2584.248408,3847.658741,-11294.122672
18926.772189,-1282.552914,-4766.502619,-8729.016845
18926.774743,-57.427742,-746.560651,-9724.431046
18926.777297,2201.396792,2794.816797,-10930.413637
18926.779851,-1512.263883,-1167.697429,-9552.147819
18926.782405,287.138712,-3062.812928,-9399.007173
18926.784959,421.136778,3732.803256,-10949.556218
18926.787512,-363.709035,-6221.338760,-8193.024582
18926.790066,2392.822600,9781.858789,-12174.681389
18926.792620,-4268.795518,-6929.614250,-7331.608446
18926.795174,-784.845813,4632.504554,-11236.694930
18926.797728,4249.652938,7389.036189,-11562.118803
18926.800282,-5283.352301,-10892.128475,-5819.344563
18926.802836,1531.406464,9686.145885,-13036.097525
18926.805389,-172.283227,-267.996131,-9552.147819
18926.807943,-2679.961312,-6527.620053,-7542.176835
18926.810497,38.285162,3675.375514,-10700.702667
18926.813051,1799.402595,3292.523898,-10815.558152
18926.815605,-1914.258080,-2411.965181,-8939.585234
18926.818159,421.136778,1646.261949,-10107.282662
18926.820713,-344.566454,2947.957443,-10260.423309
18926.823267,-1301.695494,-842.273555,-9360.722011
18926.825820,-76.570323,899.701298,-10088.140082
18926.828374,229.710970,3311.666478,-10566.704602
18926.830928,-1837.687757,-2641.676150,-8863.014910
18926.833482,459.421939,4632.504554,-10796.415571
18926.836036,-2143.969050,-2354.537438,-9111.868461
18926.838590,1971.685822,1071.984525,-10585.847182
18926.841144,4115.654872,8824.729749,-12423.534939
18926.843697,-3924.229064,-12519.247843,-6336.194245
18926.846251,-95.712904,4058.227130,-11791.829773
18926.848805,3694.518094,4230.510357,-11389.835576
18926.851359,-5608.776174,-12595.818166,-5838.487144
18926.853913,3062.812928,9667.003304,-13323.236237
18926.856467,957.129040,-248.853550,-9686.145885
18926.859021,-3005.385186,-7408.178770,-7752.745224
18926.861574,3828.516160,6967.899411,-12155.538808
18926.864128,-1167.697429,-3043.670347,-9111.868461
18926.866682,-1684.547110,-4039.084549,-8824.729749
18926.869236,3292.523898,4173.082614,-11581.261384
18926.871790,-1244.267752,-3120.240670,-9169.296203
18926.874344,-3120.240670,-5704.489078,-8097.311678
18926.876899,1703.689691,1799.402595,-10719.845248
18926.879454,957.129040,2507.678085,-10815.558152
18926.882009,-1071.984525,-7331.608446,-8307.880067
18926.884564,1895.115499,7082.754896,-12346.964616
18926.887118,-3483.949706,-5379.065205,-7867.600709
18926.889673,535.992262,3560.520029,-10528.419440
18926.892228,555.134843,5091.926493,-10643.274925
18926.894783,-5551.348432,-8997.012976,-6872.186507
18926.897338,4000.799387,13112.667848,-14165.509792
18926.899893,-306.281293,-5034.498750,-8269.594906
18926.902448,-2009.970984,-2737.389054,-9226.723946
18926.905003,574.277424,7216.752962,-12327.822035
18926.907558,-1378.265818,210.568389,-9839.286531
18926.910113,-2124.826469,-3522.234867,-8556.733618
18926.912668,1895.115499,5034.498750,-11504.691061
18926.915223,-1703.689691,-19.142581,-9609.575562
18926.917778,-1397.408398,-153.140646,-9533.005238
18926.920333,784.845813,2890.529701,-10375.278794
18926.922888,-516.849682,823.130974,-9915.856854
18926.925443,-1607.976787,-612.562586,-9494.720077
18926.927998,1665.404530,3101.098090,-10719.845248
18926.930553,-1914.258080,669.990328,-9628.718142
18926.933108,-153.140646,-2086.541307,-9303.294269
18926.935663,957.129040,7331.608446,-11772.687192
18926.938218,-2316.252277,-6144.768437,-8212.167163
18926.940772,38.285162,-2737.389054,-9724.431046
18926.943327,5838.487144,9150.153622,-12959.527202
18926.945882,-5551.348432,-14510.076246,-5455.635528
18926.948437,1033.699363,6757.331022,-12691.531070
18926.950992,2258.824534,3369.094221,-10758.130410
18926.953547,-3828.516160,-9858.429112,-6642.475538
18926.956102,4000.799387,7867.600709,-12634.103328
18926.958657,478.564520,-1665.404530,-9590.432981
18926.961212,-3273.381317,-5742.774240,-8116.454259
18926.963767,2852.244539,4938.785846,-11696.116869
18926.966322,-459.421939,-1531.406464,-9533.005238
18926.968877,-2756.531635,-6317.051664,-8212.167163
18926.971432,401.994197,1225.125171,-10528.419440
18926.973987,2584.248408,2813.959378,-11026.126541
18926.976542,-3292.523898,-5627.918755,-8059.026517
18926.979098,1473.978722,1473.978722,-10662.417506
18926.981653,-229.710970,2048.256146,-10451.849117
18926.984209,-1129.412267,-7599.604578,-8001.598774
18926.986765,3732.803256,12021.540742,-13131.810429
18926.989320,-5015.356170,-8269.594906,-6719.045861
18926.991876,-689.132909,4670.789715,-10834.700733
18926.994432,4670.789715,7886.743290,-11753.544611
18926.996987,-5532.205851,-11140.982026,-5513.063270
18926.999543,1091.127106,9647.860723,-9762.716208
18927.002099,2143.969050,8212.167163,-12155.538808
18927.004654,-3828.516160,-7044.469734,-7599.604578
18927.007210,153.140646,3311.666478,-10585.847182
18927.009766,861.416136,2909.672282,-10604.989763
18927.012321,-2086.541307,-2220.539373,-9016.155557
18927.014877,708.275490,2258.824534,-10490.134278
18927.017433,555.134843,2182.254211,-10222.138147
18927.019988,-1244.267752,-765.703232,-9379.864592
18927.022544,-535.992262,1416.550979,-10068.997501
18927.025100,803.988394,2947.957443,-10604.989763
18927.027655,-2316.252277,-1473.978722,-9131.011042
18927.030211,1588.834206,1684.547110,-10336.993632
18927.032767,2411.965181,8059.026517,-12078.968485
18927.035322,-4019.941968,-9992.427178,-6872.186507
18927.037878,2947.957443,3885.943902,-11810.972354
18927.040434,3905.086483,3292.523898,-11140.982026
18927.042989,-6431.907149,-13399.806560,-5915.057467
18927.045545,3617.947771,11389.835576,-14184.652373
18927.048101,842.273555,-2756.531635,-8805.587168
18927.050656,-3120.240670,-6699.903280,-7676.174901
18927.053212,3694.518094,9092.725880,-12691.531070
18927.055768,-1263.410333,-5206.781978,-8518.448456
18927.058323,-1014.556782,-2660.818731,-9379.864592
18927.060879,2871.387120,4862.215523,-11581.261384
18927.063435,-1684.547110,-3713.660675,-10279.565890
18927.065990,-2545.963246,-5723.631659,-8480.163294
18927.068546,1607.976787,2852.244539,-11064.411702
18927.071102,1225.125171,478.564520,-10222.138147
18927.073657,-3311.666478,-5072.783912,-8250.452325
18927.076213,2335.394858,2603.390989,-11045.269122
18927.078769,-842.273555,555.134843,-9973.284597
18927.081325,-1627.119368,-7101.897477,-7982.456194
18927.083881,4268.795518,12653.245909,-13552.947206
18927.086437,-4862.215523,-8020.741355,-6719.045861
18927.088993,-1359.123237,2871.387120,-10279.565890
18927.091549,5091.926493,9915.856854,-12538.390424
18927.094105,-5513.063270,-11619.546546,-5034.498750
18927.096661,-2067.398726,-2545.963246,-9226.723946
18927.099218,2545.963246,9073.583299,-12500.105262
18927.101774,-3828.516160,-6336.194245,-7561.319416
18927.104330,-421.136778,1971.685822,-10068.997501
18927.106886,1091.127106,4077.369710,-11006.983960
18927.109442,-2431.107762,-2775.674216,-8729.016845
18927.111998,382.851616,2526.820666,-10470.991698
18927.114554,363.709035,1684.547110,-10164.710405
18927.117110,-1186.840010,-153.140646,-9552.147819
18927.119666,-516.849682,1856.830338,-10107.282662
18927.122223,287.138712,937.986459,-10164.710405
18927.124779,-1875.972918,1397.408398,-9762.716208
18927.127335,95.712904,-1780.260014,-9399.007173
18927.129891,3407.379382,5417.350366,-11906.685258
18927.132447,-1282.552914,-3196.810994,-8901.300072
18927.135003,-1588.834206,-6010.770371,-8786.444587
18927.137559,5857.629725,10719.845248,-13514.662045
18927.140115,-4096.512291,-12500.105262,-5436.492947
18927.142672,-1091.127106,1914.258080,-11064.411702
18927.145228,3311.666478,7006.184573,-12040.683323
18927.147784,-3062.812928,-9667.003304,-6719.045861
18927.150340,3139.383251,4747.360038,-11696.116869
18927.152896,1435.693560,1627.119368,-10451.849117
18927.155452,-3579.662610,-5991.627790,-8078.169098
18927.158008,2297.109696,2871.387120,-10949.556218
18927.160564,2526.820666,-497.707101,-10892.128475
18927.163121,-1493.121302,-3254.238736,-9131.011042
18927.165677,-344.566454,-957.129040,-9781.858789
18927.168233,1799.402595,1646.261949,-10681.560086
18927.170789,-631.705166,-1225.125171,-9590.432981
18927.173345,497.707101,-3464.807125,-9360.722011
18927.175901,2182.254211,4938.785846,-11504.691061
18927.178457,-4689.932296,-4402.793584,-7925.028451
18927.181013,-363.709035,1454.836141,-10011.569758
18927.183553,2584.248408,9016.155557,-12040.683323
18927.186093,-5838.487144,-11198.409768,-6125.625856
18927.188633,1856.830338,10987.841379,-13227.523333
18927.191172,2450.250342,1320.838075,-9820.143950
18927.193712,-3885.943902,-8614.161360,-6585.047795
18927.196252,-191.425808,2450.250342,-10892.128475
18927.198791,210.568389,4326.223261,-10930.413637
18927.201331,-2392.822600,-4460.221326,-8403.592971
18927.203871,1320.838075,3885.943902,-10987.841379
18927.206411,-612.562586,918.843878,-9973.284597
18927.208950,-1703.689691,-38.285162,-9552.147819
18927.211490,574.277424,2813.959378,-10394.421374
18927.214030,-1339.980656,-38.285162,-9494.720077
18927.216569,19.142581,2201.396792,-10547.562021
18927.219109,-229.710970,516.849682,-9801.001370
18927.221649,765.703232,976.271621,-10107.282662
18927.224189,-306.281293,4747.360038,-10815.558152
18927.226728,-2967.100024,-8097.311678,-7848.458128
18927.229268,4115.654872,7159.325219,-12557.533005
18927.231808,114.855485,-5072.783912,-8595.018779
18927.234347,-4192.225195,-6412.764568,-8307.880067
18927.236887,4938.785846,10968.698798,-13782.658176
18927.239427,-2086.541307,-8690.731683,-7140.182638
18927.241967,-765.703232,-38.285162,-10068.997501
18927.244506,2775.674216,6853.043926,-11983.255581
18927.247046,-2507.678085,-7274.180704,-7791.030386
18927.249586,1512.263883,1320.838075,-10700.702667
18927.252125,1339.980656,2124.826469,-10758.130410
18927.254665,-1914.258080,-3962.514226,-8824.729749
18927.257205,-1167.697429,-1914.258080,-9628.718142
18927.259745,1703.689691,1741.974853,-10700.702667
18927.262284,-229.710970,-2143.969050,-9475.577496
18927.264824,-1033.699363,-842.273555,-9590.432981
18927.267364,1531.406464,-440.279358,-10356.136213
18927.269903,-344.566454,1588.834206,-10375.278794
18927.272443,-3215.953574,-5857.629725,-7982.456194
18927.274983,3273.381317,9399.007173,-12423.534939
18927.277523,-2316.252277,-1780.260014,-8575.876198
18927.280062,-4000.799387,-4804.787781,-8173.882002
18927.282602,5302.494882,13820.943338,-14012.369146
18927.285144,-3598.805190,-8824.729749,-6393.621987
18927.287687,-3598.805190,-7867.600709,-7274.180704
18927.290229,1091.127106,8288.737486,-12442.677520
18927.292772,-2545.963246,-1378.265818,-9150.153622
18927.295314,-2277.967115,-3311.666478,-8556.733618
18927.297856,2641.676150,5838.487144,-11830.114934
18927.300399,-1971.685822,-459.421939,-9552.147819
18927.302941,-1607.976787,-1512.263883,-9188.438784
18927.305484,1339.980656,5187.639397,-11026.126541
18927.308026,-1167.697429,-861.416136,-9265.009107
18927.310569,-899.701298,765.703232,-10011.569758
18927.313111,287.138712,2124.826469,-10413.563955
18927.315653,248.853550,1301.695494,-10126.425243
18927.318196,-2201.396792,-1052.841944,-9341.579430
18927.320738,-1780.260014,-7006.184573,-8193.024582
18927.323281,5015.356170,9360.722011,-13074.382686
18927.325823,-2009.970984,-9303.294269,-7101.897477
18927.328365,-2967.100024,-2890.529701,-9609.575562
18927.330908,5321.637462,10413.563955,-13514.662045
18927.333450,-3637.090352,-11389.835576,-6317.051664
18927.335993,535.992262,2775.674216,-11102.696864
18927.338535,2373.680019,6049.055533,-11696.116869
18927.341077,-3254.238736,-8059.026517,-7389.036189
18927.343620,2679.961312,2641.676150,-11121.839445
18927.346162,689.132909,1493.121302,-10451.849117
18927.348705,-2622.533570,-4709.074877,-8729.016845
18927.351247,-861.416136,2182.254211,-9820.143950
18927.353790,2143.969050,2201.396792,-10949.556218
18927.356332,-861.416136,-3656.232933,-8997.012976
18927.358874,-210.568389,765.703232,-10107.282662
18927.361417,1301.695494,-1071.984525,-10202.995566
18927.363959,-76.570323,1359.123237,-10298.708470
18927.366502,-3369.094221,-4173.082614,-8422.735552
18927.369044,2105.683888,6221.338760,-11696.116869
18927.371586,-803.988394,2086.541307,-9647.860723
18927.374129,-4862.215523,-7484.749093,-7235.895542
18927.376671,4441.078746,13304.093656,-14414.363342
18927.379214,-1301.695494,-5321.637462,-8078.169098
18927.381756,-2316.252277,-2967.100024,-8920.442653
18927.384299,421.136778,6297.909083,-12002.398162
18927.386843,-708.275490,1359.123237,-10145.567824
18927.389387,-2565.105827,-4441.078746,-8288.737486
18927.391932,2105.683888,4728.217458,-11351.550414
18927.394476,-1205.982590,1416.550979,-10088.140082
18927.397021,-2565.105827,-2335.394858,-8977.870395
18927.399565,1205.982590,4441.078746,-10892.128475
18927.402110,-191.425808,1167.697429,-9896.714274
18927.404654,-1339.980656,-1359.123237,-9322.436850
18927.407199,-114.855485,2986.242605,-10585.847182
18927.409743,1244.267752,497.707101,-10030.712339
18927.412288,-1550.549045,1339.980656,-9724.431046
18927.414832,-1473.978722,-6183.053598,-7465.606512
18927.417377,3177.668413,4594.219392,-12059.825904
18927.419921,2794.816797,1416.550979,-10566.704602
18927.422465,-5551.348432,-12212.966550,-6106.483275
18927.425010,4115.654872,11198.409768,-14108.082050
18927.427554,344.566454,-2986.242605,-8843.872330
18927.430099,-3120.240670,-6470.192310,-7733.602643
18927.432643,3828.516160,8461.020714,-12595.818166
18927.435188,-1397.408398,-4785.645200,-8671.589102
18927.437732,-631.705166,-2373.680019,-9265.009107
18927.440277,2718.246474,4498.506488,-11408.978157
18927.442821,-2660.818731,-4689.932296,-8690.731683
18927.445366,-440.279358,-95.712904,-10145.567824
18927.447910,2354.537438,2890.529701,-11160.124606
18927.450455,-631.705166,-2507.678085,-9360.722011
18927.452999,-669.990328,-937.986459,-9533.005238
18927.455543,76.570323,-76.570323,-10145.567824
18927.458088,937.986459,-880.558717,-9954.142016
18927.460632,-1052.841944,4153.940034,-10490.134278
18927.463177,-3675.375514,-6833.901346,-7752.745224
18927.465721,3847.658741,12978.669782,-13801.800757
18927.468266,-1359.123237,-5225.924558,-7657.032320
18927.470810,-2871.387120,-1875.972918,-9322.436850
18927.473355,4536.791650,11810.972354,-13533.804626
18927.475899,-3675.375514,-8173.882002,-7063.612315
18927.478444,-612.562586,976.271621,-10068.997501
18927.480988,1952.543242,6546.762634,-11849.257515
18927.483532,-1837.687757,-38.285162,-9628.718142
18927.486077,-1703.689691,-2048.256146,-9150.153622
18927.488607,1722.832272,3828.516160,-10911.271056
18927.491136,-248.853550,957.129040,-9839.286531
18927.493666,-2124.826469,-1186.840010,-8977.870395
18927.496195,803.988394,4383.651003,-10872.985894
18927.498725,-478.564520,-114.855485,-9915.856854
18927.501254,-1129.412267,612.562586,-9494.720077
18927.503784,-1780.260014,-593.420005,-9513.862658
18927.506313,3043.670347,3024.527766,-11217.552349
18927.508843,-746.560651,-1186.840010,-9494.720077
18927.511373,-4575.076811,-13361.521398,-6049.055533
18927.513902,1339.980656,6795.616184,-12576.675586
18927.516432,2852.244539,2009.970984,-10490.134278
18927.518961,-5513.063270,-12040.683323,-6087.340694
18927.521491,3369.094221,9743.573627,-13342.378818
18927.524020,497.707101,-555.134843,-9667.003304
18927.526550,-2354.537438,-6623.332957,-7963.313613
18927.529080,3694.518094,6623.332957,-11983.255581
18927.531609,-2029.113565,-3656.232933,-9054.440718
18927.534139,-803.988394,-3005.385186,-9169.296203
18927.536668,3177.668413,4268.795518,-11408.978157
18927.539198,-1895.115499,-4996.213589,-8690.731683
18927.541727,229.710970,-1129.412267,-9839.286531
18927.544257,2947.957443,4996.213589,-11523.833642
18927.546787,-880.558717,-4594.219392,-8901.300072
18927.549316,899.701298,1282.552914,-10394.421374
18927.551846,-2699.103893,823.130974,-9456.434915
18927.554375,-1473.978722,-2450.250342,-9131.011042
18927.556905,2641.676150,10451.849117,-12327.822035
18927.559434,-4498.506488,-10107.282662,-6125.625856
18927.561964,593.420005,8384.450390,-12193.823970
18927.564494,2354.537438,3464.807125,-10509.276859
18927.567023,-3139.383251,-7848.458128,-6910.471669
18927.569553,899.701298,7293.323285,-12232.109131
18927.572082,-1665.404530,-478.564520,-9456.434915
18927.574612,-2852.244539,-3349.951640,-8518.448456
18927.577141,918.843878,1627.119368,-10164.710405
