#time,accel_x,accel_y,accel_z
25078.500186,-153.140646,440.279358,9590.432981
25078.502719,-191.425808,382.851616,9628.718142
25078.505253,-95.712904,401.994197,9590.432981
25078.507787,-172.283227,363.709035,9609.575562
25078.510321,-114.855485,440.279358,9609.575562
25078.512854,-344.566454,325.423874,9590.432981
25078.515388,-574.277424,574.277424,9667.003304
25078.517922,-344.566454,-229.710970,9437.292334
25078.520456,-325.423874,38.285162,9494.720077
25078.522989,-229.710970,1091.127106,9877.571693
25078.525523,-38.285162,-650.847747,9360.722011
25078.528060,-593.420005,-153.140646,9590.432981
25078.530596,-1091.127106,-38.285162,9801.001370
25078.533133,421.136778,-2258.824534,9188.438784
25078.535669,-38.285162,708.275490,9724.431046
25078.538205,-957.129040,1818.545176,10183.852986
25078.540742,459.421939,0.000000,9322.436850
25078.543278,-765.703232,-1741.974853,8882.157491
25078.545815,-325.423874,2699.103893,10317.851051
25078.548351,287.138712,267.996131,9513.862658
25078.550888,1205.982590,-401.994197,9150.153622
25078.553424,325.423874,2258.824534,9781.858789
25078.555961,-172.283227,957.129040,9724.431046
25078.558497,-746.560651,-1550.549045,8958.727814
25078.561034,-937.986459,2967.100024,10222.138147
25078.563570,784.845813,1205.982590,9628.718142
25078.566106,1033.699363,-1837.687757,8709.874264
25078.568643,-823.130974,3503.092286,10317.851051
25078.571179,-746.560651,2813.959378,10279.565890
25078.573716,574.277424,-1454.836141,8939.585234
25078.576252,-114.855485,535.992262,9494.720077
25078.578789,-95.712904,2105.683888,10164.710405
25078.581325,248.853550,76.570323,9475.577496
25078.583862,248.853550,-172.283227,9131.011042
25078.586398,-516.849682,593.420005,9494.720077
25078.588935,114.855485,1339.980656,9839.286531
25078.591471,612.562586,497.707101,9552.147819
25078.594007,248.853550,-76.570323,9341.579430
25078.596544,-287.138712,2239.681954,9934.999435
25078.599080,-248.853550,1071.984525,9590.432981
25078.601617,-38.285162,-459.421939,9226.723946
25078.604153,497.707101,631.705166,9456.434915
25078.606690,727.418070,2373.680019,9973.284597
25078.609226,248.853550,-1703.689691,9207.581365
25078.611763,-363.709035,382.851616,9647.860723
25078.614299,-1091.127106,2871.387120,10164.710405
25078.616836,880.558717,-957.129040,8939.585234
25078.619372,114.855485,1722.832272,9609.575562
25078.621908,229.710970,1761.117434,9973.284597
25078.624445,-0.000000,-535.992262,9360.722011
25078.626981,612.562586,1378.265818,9820.143950
25078.629520,-2545.963246,-976.271621,9284.151688
25078.632059,-2067.398726,5398.207786,11428.120738
25078.634597,2813.959378,-3885.943902,8231.309744
25078.637136,-2239.681954,-5436.492947,7944.171032
25078.639674,-2469.392923,16060.625291,14318.650438
25078.642213,2718.246474,-16232.908518,4804.787781
25078.644751,-1148.554848,4651.647134,10394.421374
25078.647290,-2603.390989,10375.278794,13093.525267
25078.649829,4153.940034,-15428.920125,4689.932296
25078.652367,-3885.943902,8614.161360,11983.255581
25078.654906,-1339.980656,4900.500685,11753.544611
25078.657444,3637.090352,-12461.820101,5589.633594
25078.659983,-3981.656806,8901.300072,11964.113000
25078.662521,-401.994197,2048.256146,10624.132344
25078.665060,2105.683888,-7159.325219,7580.461997
25078.667599,-133.998066,-363.709035,8977.870395
25078.670137,-2239.681954,7063.612315,11868.400096
25078.672676,1225.125171,-5704.489078,8059.026517
25078.675214,-880.558717,478.564520,9456.434915
25078.677753,-1186.840010,3464.807125,10604.989763
25078.680291,421.136778,-2909.672282,8652.446522
25078.682830,-650.847747,1646.261949,9877.571693
25078.685369,-267.996131,708.275490,9896.714274
25078.687907,191.425808,-191.425808,9399.007173
25078.690446,-727.418070,612.562586,9686.145885
25078.692984,-746.560651,-727.418070,9533.005238
25078.695523,-1014.556782,-344.566454,9609.575562
25078.698061,-497.707101,842.273555,9762.716208
25078.700600,382.851616,-1014.556782,9207.581365
25078.703139,-880.558717,765.703232,9743.573627
25078.705677,-344.566454,210.568389,9705.288466
25078.708216,-0.000000,-535.992262,9284.151688
25078.710754,-1225.125171,1512.263883,10049.854920
25078.713293,593.420005,-727.418070,9265.009107
25078.715831,-497.707101,-1531.406464,9169.296203
25078.718370,172.283227,2220.539373,10222.138147
25078.720909,-746.560651,-2124.826469,8997.012976
25078.723447,574.277424,1990.828403,9858.429112
25078.725986,-1665.404530,-2239.681954,9188.438784
25078.728524,-2411.965181,3215.953574,10356.136213
25078.731048,2507.678085,1703.689691,9686.145885
25078.733571,-19.142581,-7810.172966,7389.036189
25078.736095,-1933.400661,14701.502054,13610.374949
25078.738618,3388.236802,-8614.161360,6929.614250
25078.741142,-803.988394,-2201.396792,8231.309744
25078.743665,-2182.254211,14586.646570,14146.367211
25078.746189,3541.377448,-12653.245909,5589.633594
25078.748712,-1588.834206,3426.521963,10068.997501
25078.751236,-1761.117434,9896.714274,12519.247843
25078.753759,3847.658741,-10853.843314,5953.342629
25078.756283,-3005.385186,5857.629725,11083.554283
25078.758806,-2411.965181,11370.692995,12768.101394
25078.761330,3081.955509,-5379.065205,7905.885870
25078.763853,229.710970,-1473.978722,8556.733618
25078.766377,-2143.969050,8652.446522,12040.683323
25078.768901,1627.119368,-6546.762634,7561.319416
25078.771424,-746.560651,1818.545176,9628.718142
25078.773948,-784.845813,5359.922624,11102.696864
25078.776471,2029.113565,-5206.781978,7925.028451
25078.778995,-535.992262,2507.678085,9915.856854
25078.781518,-497.707101,1990.828403,10088.140082
25078.784042,784.845813,-803.988394,9131.011042
25078.786565,-248.853550,899.701298,9494.720077
25078.789089,287.138712,1378.265818,9839.286531
25078.791612,-344.566454,2450.250342,10030.712339
25078.794136,-19.142581,-38.285162,9322.436850
25078.796659,172.283227,-459.421939,9207.581365
25078.799183,325.423874,3598.805190,10336.993632
25078.801706,382.851616,-823.130974,9188.438784
25078.804230,-287.138712,-267.996131,9303.294269
25078.806753,191.425808,3139.383251,10260.423309
25078.809277,114.855485,-2316.252277,8901.300072
25078.811800,727.418070,2450.250342,9781.858789
25078.814324,-995.414202,1339.980656,9877.571693
25078.816847,880.558717,478.564520,9322.436850
25078.819371,-803.988394,-727.418070,9341.579430
25078.821894,-1914.258080,4402.793584,10585.847182
25078.824418,2507.678085,-1225.125171,9111.868461
25078.826942,-1397.408398,-4977.071008,8269.594906
25078.829465,-1550.549045,12863.814298,13284.951075
25078.831993,2660.818731,-13840.085918,5570.491013
25078.834520,-2603.390989,2986.242605,10222.138147
25078.837048,-1110.269686,12098.111066,13533.804626
25078.839575,2737.389054,-17974.883371,4039.084549
25078.842102,-3349.951640,10911.271056,12595.818166
25078.844630,-421.136778,4804.787781,11294.122672
25078.847157,3503.092286,-14969.498186,4900.500685
25078.849685,-3981.656806,11925.827838,12978.669782
25078.852212,-2622.533570,11676.974288,13112.667848
25078.854740,2852.244539,-11849.257515,6163.911018
25078.857267,-1914.258080,2526.820666,10088.140082
25078.859795,-1818.545176,7197.610381,11944.970419
25078.862322,2411.965181,-9475.577496,6623.332957
25078.864850,-1378.265818,5187.639397,10585.847182
25078.867377,-842.273555,2679.961312,10470.991698
25078.869905,1225.125171,-5895.914886,7848.458128
25078.872432,-899.701298,4689.932296,10758.130410
25078.874960,229.710970,-555.134843,9590.432981
25078.877487,287.138712,-421.136778,9284.151688
25078.880015,-1033.699363,1225.125171,9839.286531
25078.882542,-995.414202,-1378.265818,9169.296203
25078.885070,-765.703232,459.421939,9743.573627
25078.887597,19.142581,-57.427742,9552.147819
25078.890125,287.138712,-957.129040,9322.436850
25078.892652,-823.130974,1512.263883,10011.569758
25078.895180,19.142581,-1167.697429,9169.296203
25078.897707,-440.279358,-38.285162,9284.151688
25078.900235,-1473.978722,2316.252277,10336.993632
25078.902762,1263.410333,-2048.256146,8748.159426
25078.905290,-765.703232,-478.564520,9322.436850
25078.907817,-344.566454,2679.961312,10356.136213
25078.910344,-401.994197,-2890.529701,8690.731683
25078.912872,478.564520,1359.123237,9705.288466
25078.915399,-1339.980656,-1244.267752,9456.434915
25078.917927,-1627.119368,4460.221326,10719.845248
25078.920454,3483.949706,-3330.809059,8212.167163
25078.922982,-1856.830338,-2201.396792,8863.014910
25078.925509,-210.568389,13284.951075,13131.810429
25078.928037,3598.805190,-13935.798822,5091.926493
25078.930564,-2163.111630,7331.608446,11121.839445
25078.933095,-1148.554848,8595.018779,12519.247843
25078.935626,3732.803256,-14127.224630,4881.358104
25078.938157,-2890.529701,10279.565890,12232.109131
25078.940687,363.709035,2967.100024,10604.989763
25078.943218,3483.949706,-10126.425243,5838.487144
25078.945749,-3483.949706,11121.839445,12595.818166
25078.948280,-1263.410333,8786.444587,12232.109131
25078.950811,3177.668413,-8786.444587,6719.045861
25078.953341,-784.845813,4862.215523,10394.421374
25078.955872,-899.701298,4441.078746,10949.556218
25078.958403,1684.547110,-6565.905214,7350.751027
25078.960934,-1569.691626,5015.356170,10643.274925
25078.963465,-76.570323,1416.550979,10145.567824
25078.965995,1550.549045,-3120.240670,8403.592971
25078.968526,-784.845813,3464.807125,10317.851051
25078.971057,440.279358,363.709035,9686.145885
25078.973588,459.421939,-555.134843,9111.868461
25078.976118,-765.703232,1856.830338,9801.001370
25078.978649,-191.425808,1818.545176,10068.997501
25078.981180,478.564520,363.709035,9437.292334
25078.983711,555.134843,440.279358,9245.866526
25078.986242,-267.996131,2584.248408,9992.427178
25078.988772,-344.566454,-459.421939,9341.579430
25078.991303,-19.142581,-153.140646,9245.866526
25078.993834,-133.998066,3024.527766,10279.565890
25078.996365,899.701298,-1646.261949,8977.870395
25078.998896,918.843878,1244.267752,9437.292334
25079.001426,-593.420005,1837.687757,10088.140082
25079.003957,459.421939,918.843878,9399.007173
25079.006488,-38.285162,-1665.404530,8882.157491
25079.009019,-1780.260014,4804.787781,9667.003304
25079.011549,1550.549045,5570.491013,10987.841379
25079.014080,1129.412267,-10451.849117,6508.477472
25079.016611,-4058.227130,9934.999435,12404.392358
25079.019142,1282.552914,-133.998066,9839.286531
25079.021673,803.988394,-13572.089787,5359.922624
25079.024203,-2756.531635,18664.016280,15122.638832
25079.026734,1722.832272,-9456.434915,7025.327154
25079.029265,803.988394,-5245.067139,7389.036189
25079.031796,-4230.510357,15103.496251,14069.796888
25079.034330,3177.668413,-12423.534939,6068.198114
25079.036863,-669.990328,229.710970,9226.723946
25079.039397,-1914.258080,10968.698798,12959.527202
25079.041931,1110.269686,-3751.945837,8863.014910
25079.044465,516.849682,-6948.756830,7274.180704
25079.046999,-3139.383251,10164.710405,12500.105262
25079.049533,1378.265818,-5245.067139,8307.880067
25079.052067,440.279358,-1646.261949,8767.302006
25079.054601,-2048.256146,6412.764568,11428.120738
25079.057135,1148.554848,-4651.647134,8327.022648
25079.059669,-459.421939,1167.697429,9552.147819
25079.062202,-516.849682,2718.246474,10279.565890
25079.064736,421.136778,-3158.525832,8633.303941
25079.067270,-1129.412267,2067.398726,10107.282662
25079.069804,-842.273555,-229.710970,9667.003304
25079.072338,-267.996131,-2086.541307,8958.727814
25079.074872,-842.273555,918.843878,9954.142016
25079.077406,-229.710970,76.570323,9667.003304
25079.079940,995.414202,-765.703232,9131.011042
25079.082474,-727.418070,2105.683888,10030.712339
25079.085008,-114.855485,-1856.830338,9111.868461
25079.087541,-842.273555,995.414202,9705.288466
25079.090075,-1646.261949,1033.699363,10183.852986
25079.092609,746.560651,-1607.976787,8958.727814
25079.095143,-191.425808,-823.130974,9437.292334
25079.097677,-899.701298,3828.516160,10509.276859
25079.100211,1703.689691,-3943.371645,8422.735552
25079.102745,-3177.668413,478.564520,9513.862658
25079.105279,-2373.680019,11944.970419,12921.242040
25079.107813,3503.092286,-6585.047795,7484.749093
25079.110346,-842.273555,-2890.529701,7982.456194
25079.112880,-1588.834206,16845.471104,14280.365277
25079.115414,2584.248408,-15907.484645,4709.074877
25079.117948,-1435.693560,5608.776174,10585.847182
25079.120482,-2048.256146,9494.720077,12729.816232
25079.123016,4211.367776,-13380.663979,5417.350366
25079.125550,-2316.252277,9552.147819,11753.544611
25079.128084,-803.988394,4000.799387,10834.700733
25079.130618,1454.836141,-9590.432981,6374.479406
25079.133152,-2124.826469,9226.723946,11810.972354
25079.135688,-593.420005,7140.182638,11562.118803
25079.138224,2373.680019,-6240.481341,7657.032320
25079.140761,-612.562586,4019.941968,10336.993632
25079.143297,-803.988394,2124.826469,9992.427178
25079.145834,899.701298,-3101.098090,8441.878133
25079.148370,-880.558717,2928.814862,10183.852986
25079.150907,478.564520,421.136778,9724.431046
25079.153443,842.273555,-574.277424,9379.864592
25079.155980,-401.994197,2239.681954,9954.142016
25079.158516,-114.855485,516.849682,9494.720077
25079.161052,153.140646,325.423874,9360.722011
25079.163589,344.566454,1646.261949,9762.716208
25079.166125,823.130974,1301.695494,9724.431046
25079.168662,-267.996131,-267.996131,9494.720077
25079.171198,-784.845813,669.990328,9667.003304
25079.173735,325.423874,1646.261949,9667.003304
25079.176271,765.703232,-1129.412267,9073.583299
25079.178808,995.414202,2009.970984,9762.716208
25079.181344,-765.703232,1033.699363,9877.571693
25079.183881,459.421939,1014.556782,9552.147819
25079.186417,-1014.556782,-1703.689691,8901.300072
25079.188953,95.712904,5608.776174,10681.560086
25079.191490,2526.820666,-4881.358104,8154.739421
25079.194026,-2679.961312,2163.111630,10222.138147
25079.196563,1033.699363,6068.198114,11255.837510
25079.199099,2124.826469,-12098.111066,6144.768437
25079.201636,-1971.685822,76.570323,9360.722011
25079.204172,-1512.263883,13208.380752,13744.373014
25079.206709,3024.527766,-16481.762069,4460.221326
25079.209245,-2526.820666,8441.878133,11810.972354
25079.211781,-1186.840010,6565.905214,11772.687192
25079.214318,3235.096155,-14567.503989,5091.926493
25079.216854,-3866.801322,10298.708470,12557.533005
25079.219391,727.418070,880.558717,10068.997501
25079.221927,1837.687757,-9590.432981,6374.479406
25079.224464,-3235.096155,9992.427178,12480.962682
25079.227000,-153.140646,-3464.807125,8939.585234
25079.229537,1895.115499,-4077.369710,7140.182638
25079.232073,-1148.554848,4823.930362,10700.702667
25079.234609,-689.132909,1454.836141,10011.569758
25079.237148,880.558717,-3235.096155,8518.448456
25079.239687,-1052.841944,2813.959378,10030.712339
25079.242226,153.140646,-344.566454,9418.149754
25079.244765,-38.285162,-76.570323,9475.577496
25079.247304,-401.994197,401.994197,9667.003304
25079.249843,-784.845813,-1359.123237,9322.436850
25079.252382,-1320.838075,1148.554848,10030.712339
25079.254921,-344.566454,-1301.695494,9379.864592
25079.257460,593.420005,0.000000,9475.577496
25079.259999,-191.425808,1799.402595,9973.284597
25079.262538,-19.142581,-727.418070,9360.722011
25079.265077,-1014.556782,267.996131,9418.149754
25079.267616,-2182.254211,1205.982590,10222.138147
25079.270155,612.562586,-1129.412267,9169.296203
25079.272694,306.281293,-1895.115499,9054.440718
25079.275232,-497.707101,4862.215523,10834.700733
25079.277771,1148.554848,-4498.506488,8346.165229
25079.280310,-3235.096155,784.845813,9743.573627
25079.282849,727.418070,7331.608446,11466.405899
25079.285388,1875.972918,-12212.966550,5915.057467
25079.287927,-2431.107762,13648.660110,13016.954944
25079.290466,2067.398726,-344.566454,9456.434915
25079.293005,2699.103893,-16634.902715,4345.365842
25079.295544,-2067.398726,8441.878133,11581.261384
25079.298083,-1665.404530,7006.184573,11868.400096
25079.300622,3751.945837,-13304.093656,5359.922624
25079.303161,-2431.107762,11389.835576,12366.107197
25079.305700,172.283227,1933.400661,10088.140082
25079.308239,1339.980656,-8193.024582,6699.903280
25079.310778,-2928.814862,9303.294269,12021.540742
25079.313316,1244.267752,-1359.123237,9207.581365
25079.315855,1856.830338,-3235.096155,8154.739421
25079.318394,-1205.982590,6795.616184,11351.550414
25079.320933,153.140646,-2603.390989,8824.729749
25079.323472,-76.570323,708.275490,8939.585234
25079.326011,-631.705166,2737.389054,10164.710405
25079.328550,555.134843,-1665.404530,9054.440718
25079.331089,267.996131,1607.976787,9877.571693
25079.333628,191.425808,2201.396792,10068.997501
25079.336167,172.283227,-1837.687757,8671.589102
25079.338708,-344.566454,3732.803256,10164.710405
25079.341249,76.570323,1014.556782,9571.290400
25079.343790,344.566454,-1684.547110,8958.727814
25079.346330,-689.132909,2679.961312,10222.138147
25079.348871,1014.556782,784.845813,9475.577496
25079.351412,344.566454,-1837.687757,8767.302006
25079.353953,95.712904,3541.377448,10222.138147
25079.356494,-899.701298,1646.261949,10030.712339
25079.359035,803.988394,918.843878,9513.862658
25079.361576,-421.136778,-1627.119368,9073.583299
25079.364117,-382.851616,5034.498750,10681.560086
25079.366658,2507.678085,-3407.379382,8575.876198
25079.369199,-2297.109696,-38.285162,9399.007173
25079.371739,-133.998066,7944.171032,11734.402030
25079.374280,1129.412267,-14337.793019,5627.918755
25079.376821,-3235.096155,10336.993632,12557.533005
25079.379362,593.420005,1071.984525,10336.993632
25079.381903,2297.109696,-12155.538808,5359.922624
25079.384444,-4249.652938,14203.794954,13801.800757
25079.386985,-2048.256146,-4019.941968,12385.249778
25079.389526,3043.670347,-13036.097525,5742.774240
25079.392067,-2833.101958,6317.051664,11332.407834
25079.394607,-248.853550,3120.240670,10834.700733
25079.397148,2029.113565,-8575.876198,6719.045861
25079.399689,-2584.248408,7044.469734,11485.548480
25079.402230,-727.418070,-382.851616,9839.286531
25079.404771,803.988394,-4938.785846,7905.885870
25079.407312,-1397.408398,5206.781978,10968.698798
25079.409853,287.138712,-1091.127106,9322.436850
25079.412394,363.709035,-1627.119368,8824.729749
25079.414935,-1052.841944,3177.668413,10451.849117
25079.417476,-19.142581,-612.562586,9379.864592
25079.420016,-38.285162,-957.129040,9226.723946
25079.422557,-823.130974,-363.709035,9571.290400
25079.425098,-1186.840010,-497.707101,9839.286531
25079.427639,267.996131,-133.998066,9628.718142
25079.430180,363.709035,-19.142581,9341.579430
25079.432721,-440.279358,1435.693560,9820.143950
25079.435262,-57.427742,-1071.984525,9341.579430
25079.437803,-803.988394,325.423874,9667.003304
25079.440345,-1914.258080,1071.984525,10088.140082
25079.442888,842.273555,-1129.412267,9169.296203
25079.445430,-440.279358,-2067.398726,9073.583299
25079.447972,-57.427742,5072.783912,10930.413637
25079.450515,1320.838075,-133.998066,9456.434915
25079.453057,-2258.824534,-4728.217458,8250.452325
25079.455600,-861.416136,10892.128475,12500.105262
25079.458142,3139.383251,-10356.136213,6451.049730
25079.460684,-1914.258080,5991.627790,10758.130410
25079.463227,267.996131,9303.294269,12117.253646
25079.465769,2239.681954,-15428.920125,4632.504554
25079.468312,-3158.525832,12557.533005,13170.095590
25079.470854,38.285162,1186.840010,10107.282662
25079.473396,2622.533570,-11121.839445,5876.772306
25079.475939,-2947.957443,13610.374949,13323.236237
25079.478481,1818.545176,-2201.396792,8786.444587
25079.481024,746.560651,-5053.641331,6527.620053
25079.483566,-2488.535504,5149.354235,10777.272990
25079.486108,38.285162,4039.084549,10872.985894
25079.488651,2794.816797,-7101.897477,7140.182638
25079.491193,-1205.982590,6833.901346,11083.554283
25079.493736,-344.566454,899.701298,9801.001370
25079.496278,191.425808,-3330.809059,8288.737486
25079.498820,-1205.982590,4421.936165,10604.989763
25079.501363,957.129040,-1493.121302,9111.868461
25079.503905,880.558717,210.568389,9437.292334
25079.506448,229.710970,3464.807125,10356.136213
25079.508990,612.562586,-1263.410333,8824.729749
25079.511532,-976.271621,2679.961312,9820.143950
25079.514075,-1244.267752,2641.676150,10336.993632
25079.516617,1225.125171,-1895.115499,9016.155557
25079.519160,746.560651,1933.400661,9743.573627
25079.521702,57.427742,1416.550979,9801.001370
25079.524244,1167.697429,-1110.269686,8729.016845
25079.526787,-1722.832272,2450.250342,10011.569758
25079.529329,-57.427742,2718.246474,10068.997501
25079.531872,133.998066,-4077.369710,8288.737486
25079.534414,325.423874,6374.479406,10968.698798
25079.536956,1952.543242,-4096.512291,8499.305875
25079.539499,-2354.537438,1301.695494,9743.573627
25079.542043,440.279358,5474.778109,10815.558152
25079.544587,1569.691626,-12595.818166,6527.620053
25079.547131,-1684.547110,1569.691626,9954.142016
25079.549675,-957.129040,10107.282662,12959.527202
25079.552219,2431.107762,-14873.785282,4900.500685
25079.554763,-3292.523898,9150.153622,12078.968485
25079.557306,-937.986459,4287.938099,11083.554283
25079.559850,2679.961312,-11944.970419,5647.061336
25079.562394,-3771.088418,9724.431046,12423.534939
25079.564938,727.418070,-1741.974853,9552.147819
25079.567482,1339.980656,-6661.618118,7331.608446
25079.570026,-2813.959378,9054.440718,12002.398162
25079.572570,38.285162,-3905.086483,8614.161360
25079.575114,-95.712904,-2603.390989,8614.161360
25079.577658,-918.843878,4632.504554,10815.558152
25079.580202,-593.420005,1148.554848,10030.712339
25079.582746,478.564520,-2201.396792,8863.014910
25079.585290,-784.845813,2660.818731,10145.567824
25079.587834,-287.138712,-1703.689691,9092.725880
25079.590378,-1225.125171,861.416136,9781.858789
25079.592922,-861.416136,-38.285162,9667.003304
25079.595466,172.283227,-3158.525832,8882.157491
25079.598010,-689.132909,3713.660675,10547.562021
25079.600554,-248.853550,-689.132909,9245.866526
25079.603098,-38.285162,-2373.680019,8633.303941
25079.605642,-1722.832272,4823.930362,10911.271056
25079.608185,-1512.263883,1378.265818,10490.134278
25079.610729,1014.556782,-2699.103893,8729.016845
25079.613273,-669.990328,-440.279358,9513.862658
25079.615817,-765.703232,4249.652938,10738.987829
25079.618361,1416.550979,-4345.365842,8212.167163
25079.620905,-3081.955509,957.129040,9705.288466
25079.623449,937.986459,7235.895542,11600.403965
25079.625993,2067.398726,-12040.683323,6068.198114
25079.628537,-2488.535504,12595.818166,12902.099459
25079.631081,1550.549045,612.562586,9667.003304
25079.633625,1110.269686,-10470.991698,5742.774240
25079.636169,-3617.947771,15754.343998,14280.365277
25079.638713,2277.967115,-6565.905214,7599.604578
25079.641257,3426.521963,-12921.242040,5455.635528
25079.643802,-1990.828403,9475.577496,11868.400096
25079.646347,-38.285162,3158.525832,10470.991698
25079.648892,1646.261949,-6891.329088,6967.899411
25079.651437,-2756.531635,7312.465866,11351.550414
25079.653982,727.418070,-401.994197,9571.290400
25079.656527,1780.260014,-3617.947771,8173.882002
25079.659072,-708.275490,6163.911018,11026.126541
25079.661617,746.560651,-1665.404530,8824.729749
25079.664162,133.998066,-976.271621,8901.300072
25079.666707,-1110.269686,3598.805190,10585.847182
25079.669252,708.275490,-1167.697429,9073.583299
25079.671797,1301.695494,-555.134843,9131.011042
25079.674342,248.853550,2239.681954,9896.714274
25079.676887,-784.845813,1416.550979,9647.860723
25079.679432,-248.853550,-153.140646,9188.438784
25079.681977,-19.142581,708.275490,9513.862658
25079.684522,765.703232,2163.111630,10030.712339
25079.687067,937.986459,-899.701298,9265.009107
25079.689612,861.416136,401.994197,9379.864592
25079.692157,-1722.832272,3139.383251,10241.280728
25079.694702,478.564520,535.992262,9360.722011
25079.697247,-765.703232,-2450.250342,8518.448456
25079.699792,1129.412267,6508.477472,11026.126541
25079.702337,1110.269686,-5474.778109,8154.739421
25079.704882,-2469.392923,-1569.691626,9131.011042
25079.707427,-153.140646,7637.889739,11523.833642
25079.709972,306.281293,-12806.386555,5915.057467
25079.712517,-2833.101958,10643.274925,12595.818166
25079.715063,957.129040,-823.130974,9743.573627
25079.717608,2450.250342,-10949.556218,5819.344563
25079.720153,-4651.647134,14127.224630,13974.083984
25079.722698,861.416136,-5359.922624,8307.880067
25079.725243,880.558717,-5685.346498,7312.465866
25079.727788,-3675.375514,11160.124606,13131.810429
25079.730333,2354.537438,-7542.176835,7714.460062
25079.732878,19.142581,-1646.261949,8767.302006
25079.735423,-2201.396792,6451.049730,11294.122672
25079.737968,-1052.841944,-555.134843,9686.145885
25079.740513,382.851616,-3962.514226,8154.739421
25079.743058,-1378.265818,4843.072942,10872.985894
25079.745604,440.279358,-2029.113565,9188.438784
25079.748150,-133.998066,-325.423874,9245.866526
25079.750696,-976.271621,2947.957443,10490.134278
25079.753243,-153.140646,-3349.951640,8652.446522
25079.755789,-1244.267752,1875.972918,10030.712339
25079.758335,-287.138712,-248.853550,9647.860723
25079.760881,631.705166,-2584.248408,8863.014910
25079.763427,-957.129040,3905.086483,10662.417506
25079.765974,-574.277424,918.843878,9877.571693
25079.768520,153.140646,-2277.967115,8690.731683
25079.771066,-2354.537438,3005.385186,10585.847182
25079.773612,1263.410333,-1301.695494,9245.866526
25079.776158,153.140646,-3522.234867,8575.876198
25079.778705,-765.703232,6738.188442,11447.263318
25079.781251,-421.136778,-5647.061336,8116.454259
25079.783797,-1569.691626,3311.666478,10164.710405
25079.786343,2392.822600,650.847747,9590.432981
25079.788889,-784.845813,-4039.084549,8346.165229
25079.791435,401.994197,11408.978157,12404.392358
25079.793982,2220.539373,-11638.689126,6163.911018
25079.796528,-1875.972918,7465.606512,11313.265253
25079.799074,-2967.100024,14586.646570,13878.371080
25079.801620,3254.238736,-8556.733618,6776.473603
25079.804166,727.418070,-2450.250342,8269.594906
25079.806713,-2526.820666,11868.400096,13246.665914
25079.809259,3503.092286,-8212.167163,6910.471669
25079.811805,-1014.556782,2105.683888,9456.434915
25079.814351,-1799.402595,7542.176835,11734.402030
25079.816897,2029.113565,-6278.766502,7637.889739
25079.819444,-153.140646,2488.535504,9915.856854
25079.821990,-267.996131,4077.369710,10796.415571
25079.824536,1320.838075,-3885.943902,8327.022648
25079.827083,-1416.550979,3675.375514,10222.138147
25079.829630,-708.275490,4019.941968,10547.562021
25079.832177,1129.412267,-3043.670347,8441.878133
25079.834724,-133.998066,2737.389054,9954.142016
25079.837271,-95.712904,2392.822600,10145.567824
25079.839818,535.992262,-2641.676150,8518.448456
25079.842365,-861.416136,3081.955509,10049.854920
25079.844912,669.990328,1684.547110,9705.288466
25079.847460,382.851616,-2182.254211,8805.587168
25079.850007,-535.992262,3120.240670,10336.993632
25079.852554,535.992262,1473.978722,9724.431046
25079.855101,593.420005,-2718.246474,8499.305875
25079.857648,-1301.695494,3885.943902,10336.993632
25079.860195,1071.984525,784.845813,9686.145885
25079.862742,-267.996131,-4134.797453,8384.450390
25079.865289,-95.712904,5781.059402,10777.272990
25079.867836,612.562586,-6317.051664,7925.028451
25079.870383,-3388.236802,3235.096155,10662.417506
25079.872930,631.705166,5149.354235,11217.552349
25079.875477,1167.697429,-14261.222696,5245.067139
25079.878024,-2124.826469,14567.503989,13820.943338
25079.880571,459.421939,-3139.383251,9016.155557
25079.883118,1588.834206,-10470.991698,6087.340694
25079.885665,-4115.654872,14031.511726,13495.519464
25079.888212,1665.404530,-6087.340694,8135.596840
25079.890760,631.705166,-4919.643266,7848.458128
25079.893307,-2277.967115,6049.055533,11045.269122
25079.895854,-114.855485,2258.824534,10432.706536
25079.898401,1454.836141,-6853.043926,7523.034254
25079.900948,-2335.394858,4881.358104,10949.556218
25079.903495,19.142581,267.996131,9973.284597
25079.906042,612.562586,-2545.963246,8480.163294
25079.908589,-1129.412267,2488.535504,10068.997501
25079.911136,-516.849682,-516.849682,9590.432981
25079.913683,-401.994197,-382.851616,9513.862658
25079.916230,-918.843878,-95.712904,9475.577496
25079.918777,-593.420005,172.283227,9647.860723
25079.921324,229.710970,555.134843,9705.288466
25079.923871,-708.275490,-1990.828403,9226.723946
25079.926418,-95.712904,861.416136,9590.432981
25079.928966,-650.847747,1263.410333,9724.431046
25079.931513,-689.132909,-2488.535504,9054.440718
25079.934061,-1091.127106,2641.676150,10451.849117
25079.936608,421.136778,-1493.121302,9303.294269
25079.939156,-555.134843,-478.564520,9169.296203
25079.941703,382.851616,2277.967115,10088.140082
25079.944251,-1818.545176,-2986.242605,8843.872330
25079.946798,765.703232,6106.483275,10949.556218
25079.949346,1665.404530,-7312.465866,7293.323285
25079.951893,-1952.543242,7580.461997,11447.263318
25079.954441,1244.267752,3522.234867,10624.132344
25079.956988,2277.967115,-12098.111066,5742.774240
25079.959536,-1244.267752,3445.664544,10145.567824
25079.962083,-2048.256146,10432.706536,12787.243974
25079.964631,3560.520029,-11791.829773,5953.342629
25079.967178,-1531.406464,5742.774240,10777.272990
25079.969725,-976.271621,6374.479406,11504.691061
25079.972273,2220.539373,-7159.325219,7006.184573
25079.974820,-1952.543242,4249.652938,10356.136213
25079.977368,-516.849682,3407.379382,10624.132344
25079.979915,1933.400661,-4498.506488,7944.171032
25079.982463,-535.992262,3637.090352,10202.995566
25079.985010,38.285162,1091.127106,9934.999435
25079.987558,306.281293,-1378.265818,9245.866526
25079.990105,-133.998066,1110.269686,9456.434915
25079.992653,-38.285162,1225.125171,9724.431046
25079.995200,76.570323,459.421939,9552.147819
25079.997748,19.142581,1244.267752,9781.858789
25080.000295,287.138712,38.285162,9226.723946
25080.002843,363.709035,2622.533570,9820.143950
25080.005390,38.285162,-229.710970,9379.864592
25080.007938,669.990328,114.855485,9437.292334
25080.010485,-1091.127106,3196.810994,10336.993632
25080.013033,918.843878,-1148.554848,9092.725880
25080.015580,-497.707101,-363.709035,9169.296203
25080.018128,516.849682,4536.791650,10643.274925
25080.020675,-95.712904,-2737.389054,8863.014910
25080.023223,-1435.693560,4134.797453,10528.419440
25080.025770,1397.408398,-2431.107762,8824.729749
25080.028318,-2699.103893,-3771.088418,8652.446522
25080.030866,-1148.554848,11944.970419,13036.097525
25080.033414,2220.539373,-14318.650438,5302.494882
25080.035962,-976.271621,5589.633594,10872.985894
25080.038510,-2124.826469,7829.315547,12442.677520
25080.041059,2718.246474,-14548.361408,5111.069074
25080.043607,-2737.389054,8346.165229,11581.261384
25080.046155,-1186.840010,4058.227130,11294.122672
25080.048703,2584.248408,-10088.140082,6546.762634
25080.051251,-191.425808,-1607.976787,8690.731683
25080.053800,-1856.830338,6623.332957,11619.546546
25080.056348,1263.410333,-5225.924558,8288.737486
25080.058896,-937.986459,-38.285162,9379.864592
25080.061444,-803.988394,3503.092286,10681.560086
25080.063992,459.421939,-2163.111630,8901.300072
25080.066540,-784.845813,1225.125171,9724.431046
25080.069089,-899.701298,-95.712904,9743.573627
25080.071637,-459.421939,-957.129040,9379.864592
25080.074185,-267.996131,1301.695494,9915.856854
25080.076733,-0.000000,-1914.258080,9035.298138
25080.079281,-880.558717,535.992262,9915.856854
25080.081830,-401.994197,823.130974,10451.849117
25080.084378,401.994197,-2277.967115,8709.874264
25080.086926,-1397.408398,-535.992262,9533.005238
25080.089474,-1416.550979,4517.649069,10853.843314
25080.092022,1129.412267,-5321.637462,8212.167163
25080.094571,-1205.982590,2277.967115,9954.142016
25080.097119,287.138712,1875.972918,10164.710405
25080.099667,-1052.841944,-4364.508422,8269.594906
25080.102215,555.134843,7331.608446,11370.692995
25080.104763,1263.410333,-8269.594906,7312.465866
25080.107312,-1665.404530,8346.165229,11619.546546
25080.109860,1167.697429,2852.244539,10336.993632
25080.112408,1110.269686,-10126.425243,6010.770371
25080.114956,-1531.406464,4785.645200,10528.419440
25080.117504,-1493.121302,9513.862658,12442.677520
25080.120053,3656.232933,-12193.823970,5781.059402
25080.122601,-2450.250342,7101.897477,11389.835576
25080.125149,-650.847747,5685.346498,11198.409768
25080.127697,2507.678085,-7867.600709,6738.188442
25080.130245,-2086.541307,5819.344563,10738.987829
25080.132794,-76.570323,2699.103893,10451.849117
25080.135343,1722.832272,-4460.221326,7867.600709
25080.137891,-1282.552914,4000.799387,10394.421374
25080.140440,133.998066,918.843878,9896.714274
25080.142988,689.132909,-1856.830338,8901.300072
25080.145537,-57.427742,3292.523898,9667.003304
25080.148085,-19.142581,1512.263883,9839.286531
25080.150634,229.710970,-344.566454,9341.579430
25080.153182,133.998066,2526.820666,10068.997501
25080.155731,727.418070,363.709035,9284.151688
25080.158280,-267.996131,459.421939,9418.149754
25080.160828,-478.564520,2220.539373,10088.140082
25080.163377,1091.127106,229.710970,9303.294269
25080.165925,76.570323,-1263.410333,9054.440718
25080.168474,-440.279358,3235.096155,10317.851051
25080.171022,746.560651,-1148.554848,9092.725880
25080.173571,-1186.840010,1914.258080,9686.145885
25080.176119,1531.406464,1627.119368,9781.858789
25080.178668,306.281293,-7618.747158,7542.176835
25080.181216,-3330.809059,7618.747158,11887.542677
25080.183765,1282.552914,-1493.121302,9322.436850
25080.186314,95.712904,-10241.280728,6355.336826
25080.188862,-2526.820666,16060.625291,14395.220762
25080.191411,1818.545176,-9245.866526,6948.756830
25080.193959,38.285162,-4402.793584,7886.743290
25080.196508,-3866.801322,13150.953010,13591.232368
25080.199056,2986.242605,-9992.427178,6661.618118
25080.201605,-803.988394,-459.421939,9092.725880
25080.204153,-2469.392923,7752.745224,12232.109131
25080.206702,1895.115499,-7025.327154,7580.461997
25080.209251,1052.841944,-5111.069074,7771.887805
25080.211799,-2220.539373,4613.361973,10853.843314
25080.214348,229.710970,133.998066,9954.142016
25080.216896,497.707101,-1895.115499,8824.729749
25080.219445,-1607.976787,1301.695494,9743.573627
25080.221993,-842.273555,1014.556782,10107.282662
25080.224542,76.570323,-1320.838075,9265.009107
25080.227090,-344.566454,-1167.697429,9188.438784
25080.229639,-1263.410333,1569.691626,10222.138147
25080.232188,-248.853550,-1167.697429,9341.579430
25080.234720,57.427742,-1033.699363,9131.011042
25080.237252,-1205.982590,2584.248408,10260.423309
25080.239784,114.855485,-2009.970984,9762.716208
25080.242316,-555.134843,-2469.392923,8920.442653
25080.244848,57.427742,3426.521963,10490.134278
25080.247380,-1378.265818,-2622.533570,9131.011042
25080.249912,803.988394,1856.830338,9762.716208
25080.252444,497.707101,-3120.240670,8748.159426
25080.254976,-1971.685822,5895.914886,11083.554283
25080.257509,2852.244539,-497.707101,9131.011042
25080.260041,-363.709035,-6891.329088,7101.897477
25080.262573,-1607.976787,15486.347867,13840.085918
25080.265105,2009.970984,-9111.868461,6738.188442
25080.267637,-287.138712,-2048.256146,8422.735552
25080.270169,-3101.098090,14452.648504,13974.083984
25080.272701,612.562586,957.129040,10088.140082
25080.275233,3158.525832,-10413.563955,5800.201982
25080.277765,-3139.383251,11332.407834,12576.675586
25080.280297,689.132909,440.279358,9801.001370
25080.282830,1397.408398,-6010.770371,7274.180704
25080.285362,-1933.400661,7369.893608,11485.548480
25080.287894,746.560651,-210.568389,9667.003304
25080.290426,1129.412267,-2450.250342,8403.592971
25080.292958,-880.558717,2699.103893,9992.427178
25080.295490,287.138712,248.853550,9628.718142
25080.298022,133.998066,727.418070,9533.005238
25080.300554,-0.000000,746.560651,9379.864592
25080.303086,191.425808,1282.552914,9303.294269
25080.305619,497.707101,3177.668413,9992.427178
25080.308151,-76.570323,-823.130974,9131.011042
25080.310683,114.855485,306.281293,9399.007173
25080.313215,-574.277424,4019.941968,10432.706536
25080.315747,1205.982590,-2986.242605,8652.446522
25080.318279,-114.855485,1052.841944,9724.431046
25080.320811,153.140646,3196.810994,10356.136213
25080.323343,-631.705166,-1301.695494,8901.300072
25080.325875,1454.836141,2699.103893,9877.571693
25080.328407,-1818.545176,-4000.799387,8575.876198
25080.330940,-1493.121302,8537.591037,12059.825904
25080.333472,2009.970984,-8633.303941,7140.182638
25080.336006,574.277424,-13131.810429,5666.203917
25080.338541,-2641.676150,14605.789150,13974.083984
25080.341076,1225.125171,-4249.652938,8518.448456
25080.343611,1435.693560,-9494.720077,6317.051664
25080.346146,-4307.080680,13916.656242,13667.802691
25080.348680,2335.394858,-5915.057467,7944.171032
25080.351215,727.418070,-5532.205851,7657.032320
25080.353750,-3464.807125,10279.565890,12902.099459
25080.356285,1493.121302,-5436.492947,8250.452325
25080.358819,325.423874,-2986.242605,8307.880067
25080.361354,-2029.113565,6202.196179,11581.261384
25080.363889,1167.697429,-3081.955509,8671.589102
25080.366424,1014.556782,-1301.695494,8307.880067
25080.368958,-1780.260014,2392.822600,10049.854920
25080.371493,-995.414202,650.847747,9858.429112
25080.374028,19.142581,-1875.972918,9054.440718
25080.376563,-861.416136,-325.423874,9590.432981
25080.379097,-1225.125171,-95.712904,9820.143950
25080.381632,669.990328,363.709035,9494.720077
25080.384167,-153.140646,-1244.267752,9073.583299
25080.386702,-1761.117434,689.132909,10030.712339
25080.389237,-746.560651,2316.252277,10145.567824
25080.391771,440.279358,-3751.945837,8384.450390
25080.394306,-1205.982590,3196.810994,10260.423309
25080.396841,574.277424,-133.998066,9724.431046
25080.399376,-727.418070,-5493.920690,8269.594906
25080.401910,-497.707101,7695.317482,11274.980091
25080.404445,1971.685822,-4996.213589,7925.028451
25080.406980,-1397.408398,1493.121302,9686.145885
25080.409515,267.996131,9954.142016,12385.249778
25080.412049,2239.681954,-12538.390424,5436.492947
25080.414584,-2526.820666,8652.446522,11753.544611
25080.417119,-478.564520,4957.928427,11083.554283
25080.419654,3388.236802,-11581.261384,5723.631659
25080.422188,-3062.812928,10336.993632,12557.533005
25080.424723,976.271621,1818.545176,10202.995566
25080.427258,2373.680019,-8250.452325,6489.334891
25080.429793,-593.420005,1110.269686,9207.581365
25080.432328,-1799.402595,7484.749093,12002.398162
25080.434862,1435.693560,-4287.938099,8231.309744
25080.437399,-535.992262,631.705166,9418.149754
25080.439936,-746.560651,2986.242605,10241.280728
25080.442473,1091.127106,-995.414202,9150.153622
25080.445010,191.425808,1359.123237,9513.862658
25080.447547,76.570323,574.277424,9322.436850
25080.450084,535.992262,1952.543242,9743.573627
25080.452621,133.998066,1780.260014,9724.431046
25080.455158,-76.570323,-746.560651,9226.723946
25080.457695,593.420005,2029.113565,9934.999435
25080.460232,-191.425808,1416.550979,9858.429112
25080.462769,784.845813,708.275490,9647.860723
25080.465306,-708.275490,-1359.123237,9054.440718
25080.467842,1320.838075,3828.516160,10222.138147
25080.470379,-229.710970,-3579.662610,8595.018779
25080.472916,-1454.836141,6489.334891,11006.983960
25080.475453,1914.258080,-4843.072942,8154.739421
25080.477990,-2699.103893,-1569.691626,9226.723946
25080.480527,-937.986459,11351.550414,13016.954944
25080.483064,1780.260014,-16156.338195,4900.500685
25080.485601,-1416.550979,8154.739421,11772.687192
25080.488138,-1052.841944,5800.201982,11676.974288
25080.490675,2871.387120,-15122.638832,4728.217458
25080.493212,-19.142581,-2201.396792,8441.878133
25080.495749,-3579.662610,12480.962682,13648.660110
25080.498286,2986.242605,-10317.851051,6738.188442
25080.500823,-1129.412267,-153.140646,9092.725880
25080.503360,-2201.396792,7637.889739,12078.968485
25080.505896,1914.258080,-7982.456194,7331.608446
25080.508433,-421.136778,1646.261949,9571.290400
25080.510970,-1052.841944,4268.795518,10987.841379
25080.513507,803.988394,-4173.082614,8461.020714
25080.516044,-1320.838075,2450.250342,10088.140082
25080.518581,-803.988394,-133.998066,9647.860723
25080.521118,-287.138712,-2641.676150,8977.870395
25080.523655,-363.709035,1914.258080,9896.714274
25080.526192,153.140646,1129.412267,9801.001370
25080.528729,401.994197,-2124.826469,8824.729749
25080.531266,-1607.976787,1339.980656,10145.567824
25080.533803,-861.416136,1263.410333,9973.284597
25080.536340,229.710970,-2565.105827,8882.157491
25080.538862,-689.132909,2545.963246,10030.712339
25080.541384,803.988394,-727.418070,9379.864592
25080.543906,-1761.117434,-803.988394,9456.434915
25080.546429,1416.550979,4709.074877,10643.274925
25080.548951,440.279358,-8767.302006,7025.327154
25080.551473,-2201.396792,11906.685258,12672.388490
25080.553995,2201.396792,-1952.543242,8901.300072
25080.556517,2775.674216,-13820.943338,4957.928427
25080.559040,-2813.959378,8958.727814,11849.257515
25080.561562,-976.271621,6029.912952,11485.548480
25080.564084,4058.227130,-12806.386555,5359.922624
25080.566606,-3369.094221,10662.417506,12461.820101
25080.569128,937.986459,2450.250342,10432.706536
25080.571651,2622.533570,-9322.436850,6106.483275
25080.574173,-2565.105827,10317.851051,12174.681389
25080.576695,133.998066,440.279358,9896.714274
25080.579217,1225.125171,-4728.217458,7542.176835
25080.581739,-727.418070,4785.645200,10719.845248
25080.584262,669.990328,-421.136778,9571.290400
25080.586784,937.986459,-1052.841944,9150.153622
25080.589306,-0.000000,3330.809059,10088.140082
25080.591828,631.705166,-1033.699363,8824.729749
25080.594351,-133.998066,2450.250342,9896.714274
25080.596873,-401.994197,2335.394858,10164.710405
25080.599395,555.134843,-2679.961312,8633.303941
25080.601917,114.855485,4900.500685,10566.704602
25080.604439,746.560651,-1493.121302,9054.440718
25080.606962,727.418070,-899.701298,8863.014910
25080.609484,-1052.841944,3790.230998,10662.417506
25080.612006,401.994197,344.566454,9456.434915
25080.614528,1837.687757,-2852.244539,8480.163294
25080.617050,-3790.230998,3541.377448,10681.560086
25080.619573,-2641.676150,11083.554283,12863.814298
25080.622095,2756.531635,-10394.421374,6604.190376
25080.624617,-2105.683888,-2220.539373,8633.303941
25080.627139,-2565.105827,14050.654307,14280.365277
25080.629662,3656.232933,-15180.066574,4938.785846
25080.632184,-1914.258080,3675.375514,10336.993632
25080.634706,-3598.805190,10662.417506,13131.810429
25080.637228,3905.086483,-13572.089787,5187.639397
25080.639738,-2852.244539,5551.348432,10834.700733
25080.642247,-1588.834206,6163.911018,11964.113000
25080.644757,2297.109696,-11389.835576,6259.623922
25080.647266,-1990.828403,5647.061336,10968.698798
25080.649776,-1914.258080,7523.034254,11944.970419
25080.652286,1205.982590,-3196.810994,8729.016845
25080.654795,-478.564520,-1856.830338,8652.446522
25080.657305,-2143.969050,3847.658741,10719.845248
25080.659814,-191.425808,-2450.250342,9131.011042
25080.662324,-689.132909,-784.845813,9360.722011
25080.664834,-1014.556782,440.279358,9954.142016
25080.667343,765.703232,-95.712904,9590.432981
25080.669853,-172.283227,114.855485,9341.579430
25080.672362,-1473.978722,-1473.978722,9265.009107
25080.674872,-1550.549045,3120.240670,10490.134278
25080.677381,-0.000000,-2143.969050,9054.440718
25080.679891,-2603.390989,-287.138712,8422.735552
25080.682401,803.988394,2909.672282,10164.710405
25080.684910,-1435.693560,-2029.113565,9322.436850
25080.687420,-0.000000,5359.922624,10834.700733
25080.689929,1818.545176,-5608.776174,7676.174901
25080.692439,-2029.113565,3483.949706,10222.138147
25080.694948,746.560651,8193.024582,11810.972354
25080.697458,2354.537438,-11791.829773,5513.063270
25080.699968,-2890.529701,9437.292334,12117.253646
25080.702477,-38.285162,3637.090352,10643.274925
25080.704987,3617.947771,-11179.267187,5685.346498
25080.707496,-3235.096155,10853.843314,12710.673651
25080.710006,1397.408398,650.847747,9858.429112
25080.712516,3369.094221,-9092.725880,6527.620053
25080.715025,-918.843878,2584.248408,9475.577496
25080.717535,-1454.836141,7293.323285,11753.544611
25080.720044,995.414202,-5532.205851,7829.315547
25080.722554,-765.703232,2833.101958,9954.142016
25080.725063,306.281293,1512.263883,10011.569758
25080.727573,1397.408398,-2335.394858,8671.589102
25080.730083,-114.855485,5206.781978,10547.562021
25080.732592,727.418070,-899.701298,8805.587168
25080.735102,-861.416136,631.705166,9418.149754
25080.737611,-1378.265818,4441.078746,10796.415571
25080.740127,1875.972918,-3139.383251,8346.165229
25080.742643,1110.269686,2124.826469,8384.450390
25080.745158,-535.992262,6757.331022,11274.980091
25080.747674,248.853550,-3330.809059,8729.016845
25080.750189,1148.554848,1014.556782,9169.296203
25080.752705,-746.560651,669.990328,9934.999435
25080.755220,-1780.260014,2469.392923,10298.708470
25080.757736,2182.254211,-880.558717,9111.868461
25080.760251,-2067.398726,-5570.491013,8039.883936
25080.762767,-2029.113565,12500.105262,13189.238171
25080.765282,1703.689691,-11734.402030,6221.338760
25080.767798,-153.140646,-746.560651,9016.155557
25080.770313,-2852.244539,12251.251712,13572.089787
25080.772829,2909.672282,-13457.234302,5474.778109
25080.775344,2086.541307,-9667.003304,6221.338760
25080.777860,-4192.225195,13131.810429,13418.949141
25080.780375,1799.402595,-4747.360038,8537.591037
25080.782891,555.134843,-6719.045861,7274.180704
25080.785406,-3426.521963,9820.143950,12691.531070
25080.787922,535.992262,-4326.223261,8652.446522
25080.790437,631.705166,-2507.678085,8269.594906
25080.792953,-1627.119368,5111.069074,10815.558152
25080.795468,382.851616,-1990.828403,9303.294269
25080.797984,-478.564520,-401.994197,9322.436850
25080.800499,-1703.689691,-76.570323,9743.573627
25080.803014,-363.709035,-1569.691626,9418.149754
25080.805530,612.562586,995.414202,9801.001370
25080.808045,-957.129040,153.140646,9552.147819
25080.810561,287.138712,-1703.689691,8997.012976
25080.813076,-1761.117434,1454.836141,9992.427178
25080.815592,382.851616,669.990328,9820.143950
25080.818107,-784.845813,-2679.961312,8729.016845
25080.820623,937.986459,3962.514226,10432.706536
25080.823138,-306.281293,-4594.219392,8518.448456
25080.825654,-1244.267752,7465.606512,11428.120738
25080.828169,2182.254211,-3809.373579,8212.167163
25080.830685,-1110.269686,-2182.254211,8480.163294
25080.833200,-535.992262,13112.667848,13131.810429
25080.835716,2890.529701,-11887.542677,5532.205851
25080.838231,1071.984525,-8097.311678,6699.903280
25080.840752,-3139.383251,15103.496251,13954.941403
25080.843273,2622.533570,-5608.776174,7944.171032
25080.845793,325.423874,-5493.920690,7427.321350
25080.848314,-2909.672282,12863.814298,13265.808494
25080.850834,3101.098090,-7044.469734,7389.036189
25080.853355,191.425808,-976.271621,8518.448456
25080.855876,-2048.256146,9360.722011,12366.107197
25080.858396,1205.982590,-5302.494882,7982.456194
25080.860917,-574.277424,899.701298,9494.720077
25080.863438,-459.421939,4077.369710,10643.274925
25080.865958,1914.258080,-3464.807125,8327.022648
25080.868479,727.418070,1110.269686,9341.579430
25080.870999,-937.986459,4039.084549,10336.993632
25080.873520,-19.142581,-2086.541307,8748.159426
25080.876041,689.132909,2545.963246,9934.999435
25080.878561,-689.132909,918.843878,9762.716208
25080.881082,1091.127106,-19.142581,9360.722011
25080.883602,-612.562586,784.845813,9571.290400
25080.886123,1110.269686,1052.841944,9513.862658
25080.888644,-1818.545176,-287.138712,9533.005238
25080.891164,631.705166,4881.358104,10585.847182
25080.893685,1014.556782,-8403.592971,7274.180704
25080.896205,-3637.090352,8097.311678,12021.540742
25080.898726,1148.554848,191.425808,9877.571693
25080.901247,2067.398726,-15677.773675,5053.641331
25080.903767,-1205.982590,5761.916821,11006.983960
25080.906288,-1627.119368,8365.307810,12385.249778
25080.908808,3139.383251,-15486.347867,4728.217458
25080.911329,-3445.664544,8307.880067,11772.687192
25080.913850,-574.277424,5417.350366,11447.263318
25080.916370,2928.814862,-12212.966550,5608.776174
25080.918891,-3388.236802,8786.444587,11944.970419
25080.921412,-899.701298,1378.265818,10566.704602
25080.923932,1780.260014,-8327.022648,6795.616184
25080.926453,-1665.404530,6336.194245,11294.122672
25080.928973,287.138712,-229.710970,9667.003304
25080.931494,1186.840010,-3943.371645,8652.446522
25080.934015,-1205.982590,1493.121302,9858.429112
25080.936535,-1588.834206,-114.855485,9877.571693
25080.939056,689.132909,-1741.974853,9150.153622
25080.941581,133.998066,976.271621,9839.286531
25080.944106,-1071.984525,-689.132909,9437.292334
25080.946632,172.283227,957.129040,9647.860723
25080.949157,-1071.984525,-1780.260014,9016.155557
25080.951683,-0.000000,1990.828403,10107.282662
25080.954208,-1416.550979,-746.560651,9533.005238
25080.956733,1282.552914,1282.552914,9590.432981
25080.959259,631.705166,-3541.377448,8518.448456
25080.961784,-2373.680019,727.418070,9686.145885
25080.964309,727.418070,8690.731683,11830.114934
25080.966835,2392.822600,-12404.392358,5570.491013
25080.969360,-2048.256146,10758.130410,12136.396227
25080.971885,-555.134843,4862.215523,11083.554283
25080.974411,3043.670347,-12959.527202,5283.352301
25080.976936,-3024.527766,13380.663979,13265.808494
25080.979462,727.418070,823.130974,9954.142016
25080.981987,2411.965181,-11083.554283,5800.201982
25080.984512,-3560.520029,13055.240106,13208.380752
25080.987038,1799.402595,-1990.828403,9169.296203
25080.989563,1971.685822,-6144.768437,6948.756830
25080.992088,-2201.396792,9705.288466,12155.538808
25080.994614,-593.420005,3675.375514,10796.415571
25080.997139,1014.556782,-3943.371645,8269.594906
25080.999665,-574.277424,3637.090352,10068.997501
25081.002190,191.425808,210.568389,9418.149754
25081.004715,95.712904,1320.838075,9609.575562
25081.007241,-76.570323,2182.254211,9839.286531
25081.009766,669.990328,-1761.117434,8671.589102
25081.012291,-382.851616,4881.358104,10662.417506
25081.014817,727.418070,-1359.123237,9092.725880
25081.017342,440.279358,-1569.691626,8824.729749
25081.019867,-727.418070,4728.217458,10853.843314
25081.022393,-38.285162,-363.709035,9245.866526
25081.024918,2565.105827,-995.414202,8882.157491
25081.027444,-1052.841944,-4345.365842,8422.735552
25081.029969,-3101.098090,10049.854920,12672.388490
25081.032494,2450.250342,-7446.463931,7312.465866
25081.035020,-1454.836141,-5340.780043,7752.745224
25081.037545,-2794.816797,14778.072378,14452.648504
25081.040070,3637.090352,-12500.105262,5800.201982
25081.042600,-1282.552914,-133.998066,9150.153622
25081.045129,-4766.502619,12480.962682,13763.515595
25081.047658,3617.947771,-12595.818166,5704.489078
25081.050187,-1665.404530,2316.252277,9877.571693
25081.052717,-2086.541307,9016.155557,12595.818166
25081.055246,2488.535504,-10987.841379,6336.194245
25081.057775,1914.258080,-6451.049730,7235.895542
25081.060304,-2124.826469,7580.461997,11849.257515
25081.062834,765.703232,-1780.260014,9265.009107
25081.065363,95.712904,-2967.100024,8422.735552
25081.067892,-2565.105827,3503.092286,10662.417506
25081.070421,-114.855485,-2048.256146,9265.009107
25081.072951,880.558717,-727.418070,9226.723946
25081.075480,-363.709035,1033.699363,9858.429112
25081.078009,-1244.267752,-1473.978722,9379.864592
25081.080538,-19.142581,1646.261949,9839.286531
25081.083068,-899.701298,-2699.103893,8805.587168
25081.085597,-267.996131,2947.957443,10413.563955
25081.088126,-861.416136,1205.982590,10049.854920
25081.090656,-612.562586,114.855485,9494.720077
25081.093185,2469.392923,153.140646,9188.438784
25081.095714,-1856.830338,-2603.390989,8824.729749
25081.098243,-153.140646,9571.290400,12117.253646
25081.100773,2641.676150,-8269.594906,6910.471669
25081.103302,-1186.840010,3790.230998,9915.856854
25081.105831,-1665.404530,9705.288466,12500.105262
25081.108360,3445.664544,-12098.111066,5723.631659
25081.110890,-1493.121302,6431.907149,10930.413637
25081.113419,-1071.984525,7006.184573,11657.831707
25081.115948,3407.379382,-11676.974288,5685.346498
25081.118477,-3062.812928,8518.448456,11753.544611
25081.121007,-2067.398726,11236.694930,12825.529136
25081.123536,2699.103893,-6029.912952,7637.889739
25081.126065,689.132909,-937.986459,8595.018779
25081.128594,-1301.695494,6355.336826,11562.118803
25081.131124,1531.406464,-2679.961312,8729.016845
25081.133653,344.566454,229.710970,9054.440718
25081.136182,-1186.840010,4307.080680,10547.562021
25081.138711,497.707101,-535.992262,9245.866526
25081.141241,516.849682,153.140646,9303.294269
25081.143774,382.851616,3235.096155,9992.427178
25081.146307,248.853550,-976.271621,9207.581365
25081.148840,287.138712,1225.125171,9571.290400
25081.151373,-229.710970,114.855485,9456.434915
25081.153906,19.142581,3139.383251,10068.997501
25081.156439,1684.547110,-2986.242605,8614.161360
25081.158972,-2852.244539,1186.840010,9992.427178
25081.161505,669.990328,6202.196179,11274.980091
25081.164038,593.420005,-12825.529136,5781.059402
25081.166571,-2967.100024,10892.128475,12576.675586
25081.169104,267.996131,-957.129040,9915.856854
25081.171637,2679.961312,-11772.687192,5819.344563
25081.174170,-4268.795518,14586.646570,13993.226565
25081.176703,593.420005,-4689.932296,8595.018779
25081.179236,1301.695494,-8059.026517,6853.043926
25081.181769,-3637.090352,13438.091722,11332.407834
25081.184302,-325.423874,4709.074877,11332.407834
25081.186835,1856.830338,-10643.274925,6317.051664
25081.189368,-2871.387120,6795.616184,11313.265253
25081.191900,-1129.412267,1569.691626,10566.704602
25081.194433,727.418070,-5589.633594,7752.745224
25081.196966,-2143.969050,4019.941968,10604.989763
25081.199499,-497.707101,-421.136778,9705.288466
25081.202032,535.992262,-3120.240670,8633.303941
25081.204565,-861.416136,2431.107762,10068.997501
25081.207098,-689.132909,-899.701298,9437.292334
25081.209631,-708.275490,-1244.267752,9475.577496
25081.212164,-593.420005,1990.828403,10011.569758
25081.214697,-459.421939,-976.271621,9322.436850
25081.217230,-344.566454,689.132909,9686.145885
25081.219763,-172.283227,-440.279358,9533.005238
25081.222296,-1684.547110,937.986459,9801.001370
25081.224829,2124.826469,2909.672282,9992.427178
25081.227362,-248.853550,-7140.182638,7542.176835
25081.229895,-1569.691626,12251.251712,13016.954944
25081.232428,2469.392923,-4919.643266,7925.028451
25081.234961,-38.285162,-3656.232933,7542.176835
25081.237494,-3043.670347,14873.785282,13935.798822
25081.240027,3694.518094,-11121.839445,6163.911018
25081.242560,306.281293,287.138712,8920.442653
25081.245096,-3388.236802,13552.947206,13265.808494
25081.247633,1071.984525,-1301.695494,9303.294269
25081.250169,1014.556782,-7944.171032,6642.475538
25081.252705,-2584.248408,12212.966550,12844.671717
25081.255241,2431.107762,-3311.666478,8633.303941
25081.257777,1320.838075,-3675.375514,7752.745224
25081.260313,-1397.408398,8403.592971,11887.542677
25081.262849,1799.402595,-3330.809059,8575.876198
25081.265386,421.136778,19.142581,8939.585234
25081.267922,-1665.404530,5742.774240,11064.411702
25081.270458,1052.841944,-3254.238736,8537.591037
25081.272994,1167.697429,2373.680019,9743.573627
25081.275530,-899.701298,2526.820666,10011.569758
25081.278066,133.998066,535.992262,9552.147819
25081.280602,-421.136778,-133.998066,9284.151688
25081.283139,1339.980656,1378.265818,9571.290400
25081.285675,-1129.412267,-1550.549045,9131.011042
25081.288211,38.285162,6738.188442,11160.124606
25081.290747,1761.117434,-9743.573627,6872.186507
25081.293283,-4192.225195,5647.061336,11370.692995
25081.295819,-0.000000,6010.770371,11523.833642
25081.298355,1627.119368,-16864.613685,4460.221326
25081.300892,-3120.240670,14950.355605,14069.796888
25081.303428,1627.119368,-1282.552914,9494.720077
25081.305964,2124.826469,-13514.662045,4957.928427
25081.308500,-2641.676150,4575.076811,10585.847182
25081.311036,-2545.963246,10126.425243,12997.812363
25081.313572,4077.369710,-14031.511726,5302.494882
25081.316108,-2699.103893,6795.616184,11160.124606
25081.318645,-823.130974,5245.067139,11542.976222
25081.321181,2297.109696,-10987.841379,6240.481341
25081.323717,-2297.109696,6872.186507,11313.265253
25081.326253,-306.281293,1454.836141,10375.278794
25081.328789,899.701298,-7159.325219,7446.463931
25081.331325,-1990.828403,6585.047795,11485.548480
25081.333862,421.136778,-1952.543242,9188.438784
25081.336398,95.712904,-2794.816797,8652.446522
25081.338934,-2718.246474,3483.949706,10834.700733
25081.341470,-880.558717,1435.693560,10107.282662
25081.344006,727.418070,-2986.242605,8671.589102
25081.346545,-1225.125171,2699.103893,10107.282662
25081.349083,-76.570323,-1225.125171,9456.434915
25081.351622,-1799.402595,937.986459,9820.143950
25081.354161,1856.830338,3139.383251,9992.427178
25081.356699,-95.712904,-7944.171032,7178.467800
25081.359238,-1761.117434,13438.091722,13342.378818
25081.361777,2699.103893,-5876.772306,7752.745224
25081.364315,-57.427742,-3771.088418,7599.604578
25081.366854,-3292.523898,15869.199483,14203.794954
25081.369393,3656.232933,-12270.394293,5781.059402
25081.371931,4345.365842,-12040.683323,5417.350366
25081.374470,-3464.807125,14778.072378,13686.945272
25081.377009,1129.412267,-2335.394858,8958.727814
25081.379547,842.273555,-7829.315547,6719.045861
25081.382086,-2679.961312,13112.667848,13131.810429
25081.384625,3311.666478,-4977.071008,8059.026517
25081.387163,1110.269686,-3464.807125,7848.458128
25081.389702,-1550.549045,9954.142016,12385.249778
25081.392240,2163.111630,-5225.924558,7925.028451
25081.394779,-459.421939,440.279358,9035.298138
25081.397318,-1818.545176,7446.463931,11638.689126
25081.399856,2143.969050,-5379.065205,7944.171032
25081.402395,1091.127106,4153.940034,10030.712339
25081.404934,-823.130974,4823.930362,10738.987829
25081.407472,803.988394,-1588.834206,8958.727814
25081.410011,-478.564520,248.853550,9552.147819
25081.412550,-57.427742,4345.365842,10451.849117
25081.415088,2450.250342,-5359.922624,7905.885870
25081.417627,-3388.236802,4326.223261,10796.415571
25081.420166,1091.127106,4249.652938,10892.128475
25081.422704,287.138712,-14127.224630,5513.063270
25081.425243,-3905.086483,14414.363342,13648.660110
25081.427782,1301.695494,-4192.225195,8748.159426
25081.430320,2354.537438,-10834.700733,6010.770371
25081.432859,-4268.795518,16960.326589,14720.644635
25081.435398,-3062.812928,6623.332957,12098.111066
25081.437936,3120.240670,-14950.355605,4881.358104
25081.440475,-3349.951640,10126.425243,12346.964616
25081.443014,842.273555,1971.685822,10528.419440
25081.445552,1722.832272,-10509.276859,6259.623922
25081.448093,-3215.953574,9035.298138,12117.253646
25081.450634,-459.421939,-1397.408398,9533.005238
25081.453175,229.710970,-4575.076811,8059.026517
25081.455717,-2431.107762,5111.069074,11006.983960
25081.458258,382.851616,-2526.820666,9207.581365
25081.460799,689.132909,-1071.984525,9092.725880
25081.463340,-1301.695494,2277.967115,10202.995566
25081.465881,-1569.691626,-3349.951640,9035.298138
25081.468422,-306.281293,1110.269686,9954.142016
25081.470963,-344.566454,-114.855485,9571.290400
25081.473504,306.281293,-1033.699363,8958.727814
25081.476045,-1665.404530,1397.408398,10222.138147
25081.478586,-1435.693560,1952.543242,10126.425243
25081.481127,3254.238736,-2756.531635,8288.737486
25081.483668,-2277.967115,-478.564520,9131.011042
25081.486210,593.420005,10298.708470,12232.109131
25081.488751,2852.244539,-11217.552349,6087.340694
25081.491292,-1895.115499,6738.188442,10911.271056
25081.493833,-1473.978722,8403.592971,12117.253646
25081.496374,2928.814862,-13246.665914,5321.637462
25081.498915,1416.550979,-3560.520029,7771.887805
25081.501456,-2967.100024,14203.794954,13744.373014
25081.503997,3464.807125,-9609.575562,6546.762634
25081.506538,-1952.543242,612.562586,9265.009107
25081.509079,-1665.404530,10700.702667,12902.099459
25081.511620,3196.810994,-8863.014910,6795.616184
25081.514161,-555.134843,3560.520029,9973.284597
25081.516702,-344.566454,5206.781978,11140.982026
25081.519244,2067.398726,-5570.491013,7637.889739
25081.521785,-1282.552914,4421.936165,10336.993632
25081.524326,-937.986459,2124.826469,10068.997501
25081.526867,1684.547110,-2335.394858,8556.733618
25081.529408,153.140646,1952.543242,9743.573627
25081.531949,-440.279358,2526.820666,10088.140082
25081.534490,191.425808,-2105.683888,8671.589102
25081.537031,-133.998066,2277.967115,10126.425243
25081.539572,-1225.125171,1435.693560,10030.712339
25081.542113,2775.674216,-746.560651,8939.585234
25081.544654,-2124.826469,-2986.242605,8786.444587
25081.547195,-1952.543242,9494.720077,12423.534939
25081.549738,1799.402595,-11121.839445,6336.194245
25081.552281,-2029.113565,803.988394,9571.290400
25081.554824,-1665.404530,10930.413637,13227.523333
25081.557367,3464.807125,-14567.503989,5225.924558
25081.559910,-2871.387120,7178.467800,11504.691061
25081.562453,-5761.916821,14050.654307,13974.083984
25081.564996,1875.972918,-8039.883936,7350.751027
25081.567539,478.564520,-3943.371645,8001.598774
25081.570082,-2258.824534,11160.124606,13055.240106
25081.572625,1914.258080,-7886.743290,7503.891674
25081.575168,-727.418070,-76.570323,9150.153622
25081.577711,-2220.539373,5493.920690,11332.407834
25081.580254,229.710970,-5704.489078,8116.454259
25081.582796,-976.271621,1512.263883,9896.714274
25081.585339,-440.279358,1378.265818,10049.854920
25081.587882,746.560651,-3407.379382,8556.733618
25081.590425,-2124.826469,2450.250342,10566.704602
25081.592968,-421.136778,1780.260014,10088.140082
25081.595511,267.996131,-4632.504554,8250.452325
25081.598054,38.285162,4383.651003,10604.989763
25081.600597,-1301.695494,-1263.410333,9379.864592
25081.603140,650.847747,421.136778,9418.149754
25081.605683,57.427742,-1914.258080,9016.155557
25081.608226,-1378.265818,5685.346498,10968.698798
25081.610769,3062.812928,-727.418070,8920.442653
25081.613312,38.285162,-5666.203917,7484.749093
25081.615854,-976.271621,13380.663979,13189.238171
25081.618397,1933.400661,-7369.893608,7025.327154
25081.620940,-1454.836141,-1646.261949,8690.731683
25081.623483,-1856.830338,12748.958813,13380.663979
25081.626026,1875.972918,-133.998066,9590.432981
25081.628569,2469.392923,-8269.594906,6508.477472
25081.631112,-3196.810994,11849.257515,12806.386555
25081.633655,1435.693560,-3560.520029,8690.731683
25081.636198,382.851616,-3617.947771,8020.741355
25081.638741,-1607.976787,8365.307810,11849.257515
25081.641284,1818.545176,-4192.225195,8288.737486
25081.643827,153.140646,1435.693560,9494.720077
25081.646370,-995.414202,5034.498750,10834.700733
25081.648913,1071.984525,-4862.215523,7791.030386
25081.651457,-267.996131,5091.926493,10509.276859
25081.654002,172.283227,2545.963246,10145.567824
25081.656547,1110.269686,-3120.240670,8556.733618
25081.659092,-344.566454,1531.406464,9609.575562
25081.661637,-95.712904,2756.531635,10317.851051
25081.664181,-612.562586,-1818.545176,9035.298138
25081.666726,1914.258080,3158.525832,9973.284597
25081.669271,-995.414202,-5819.344563,8116.454259
25081.671816,-2411.965181,9399.007173,12366.107197
25081.674361,1320.838075,-7216.752962,7523.034254
25081.676906,-1052.841944,-4268.795518,8020.741355
25081.679450,-2450.250342,13820.943338,13974.083984
25081.681995,3311.666478,-13055.240106,5704.489078
25081.684540,-1837.687757,2526.820666,10088.140082
25081.687085,-4230.510357,10451.849117,13246.665914
25081.689630,842.273555,-4977.071008,8461.020714
25081.692175,1397.408398,-7063.612315,7101.897477
25081.694719,-2335.394858,11523.833642,13036.097525
25081.697264,1780.260014,-5685.346498,8307.880067
25081.699809,-344.566454,-2124.826469,8556.733618
25081.702354,-2584.248408,6546.762634,11542.976222
25081.704899,210.568389,-5781.059402,8059.026517
25081.707444,-937.986459,746.560651,9667.003304
25081.709988,-880.558717,3235.096155,10566.704602
25081.712533,784.845813,-5379.065205,8154.739421
25081.715078,-2143.969050,2048.256146,10317.851051
25081.717623,-823.130974,1282.552914,10126.425243
25081.720168,440.279358,-4115.654872,8595.018779
25081.722712,-153.140646,1722.832272,9667.003304
25081.725257,-995.414202,593.420005,9934.999435
25081.727802,-1531.406464,440.279358,9724.431046
25081.730347,2239.681954,1914.258080,9705.288466
25081.732892,-612.562586,-6049.055533,7771.887805
25081.735437,-727.418070,12595.818166,12921.242040
25081.737981,2450.250342,-7006.184573,7331.608446
25081.740526,-612.562586,-1225.125171,8537.591037
25081.743071,-2584.248408,13667.802691,13648.660110
25081.745616,3062.812928,-12270.394293,5685.346498
25081.748161,-803.988394,4364.508422,10049.854920
25081.750706,-1320.838075,9533.005238,12519.247843
25081.753252,2086.541307,-5206.781978,7963.313613
25081.755798,-76.570323,-3885.943902,7886.743290
25081.758344,-2373.680019,11064.411702,12787.243974
25081.760891,2660.818731,-5647.061336,8039.883936
25081.763437,133.998066,-363.709035,8882.157491
25081.765983,-497.707101,7255.038123,11600.403965
25081.768530,1895.115499,-5340.780043,7771.887805
25081.771076,-727.418070,2775.674216,9877.571693
25081.773622,-631.705166,5034.498750,10758.130410
25081.776169,1741.974853,-3426.521963,8097.311678
25081.778715,-650.847747,3388.236802,10336.993632
25081.781261,306.281293,1933.400661,9915.856854
25081.783807,899.701298,-3235.096155,8614.161360
25081.786354,-727.418070,3694.518094,10222.138147
25081.788900,1818.545176,-995.414202,9226.723946
25081.791446,-2201.396792,-2813.959378,8863.014910
25081.793993,-880.558717,10356.136213,12366.107197
25081.796539,1359.123237,-14452.648504,5493.920690
25081.799085,-2565.105827,7197.610381,11562.118803
25081.801632,-612.562586,5608.776174,11676.974288
25081.804178,3235.096155,-15792.629160,4517.649069
25081.806724,-3962.514226,14088.939469,13572.089787
25081.809270,-478.564520,-1071.984525,10030.712339
25081.811817,2488.535504,-12193.823970,5781.059402
25081.814363,-1473.978722,13629.517530,10202.995566
25081.816909,-1033.699363,7925.028451,12232.109131
25081.819456,2565.105827,-10719.845248,6470.192310
25081.822002,-2277.967115,4383.651003,10528.419440
25081.824548,-1320.838075,3866.801322,11121.839445
25081.827095,574.277424,-7274.180704,7580.461997
25081.829641,-1837.687757,4421.936165,10796.415571
25081.832187,-306.281293,401.994197,9934.999435
25081.834734,669.990328,-4785.645200,8231.309744
25081.837280,-1607.976787,2909.672282,10470.991698
25081.839826,-497.707101,-842.273555,9456.434915
25081.842372,-38.285162,-1703.689691,9226.723946
25081.844919,-689.132909,2622.533570,10183.852986
25081.847465,574.277424,-1033.699363,9150.153622
25081.850011,-2277.967115,440.279358,9724.431046
25081.852558,1339.980656,5857.629725,10853.843314
25081.855105,1856.830338,-10470.991698,6546.762634
25081.857652,-2354.537438,12480.962682,12882.956878
25081.860200,1512.263883,114.855485,9552.147819
25081.862747,1110.269686,-10145.567824,5876.772306
25081.865294,-3694.518094,16558.332392,14318.650438
25081.867842,2699.103893,-7484.749093,7350.751027
25081.870389,1722.832272,-4268.795518,7465.606512
25081.872937,-3120.240670,14816.357539,13878.371080
25081.875484,3177.668413,-9915.856854,6565.905214
25081.878031,1856.830338,-9073.583299,6451.049730
25081.880579,-2890.529701,9858.429112,12136.396227
25081.883126,1435.693560,-76.570323,9686.145885
25081.885673,1703.689691,-5321.637462,7484.749093
25081.888221,-1339.980656,7848.458128,11466.405899
25081.890768,880.558717,-1014.556782,9226.723946
25081.893315,842.273555,-2029.113565,8365.307810
25081.895863,-861.416136,6910.471669,11064.411702
25081.898410,612.562586,-2143.969050,8920.442653
25081.900957,478.564520,555.134843,9456.434915
25081.903505,-995.414202,3407.379382,10241.280728
25081.906052,1741.974853,-2029.113565,8709.874264
25081.908599,-1933.400661,1416.550979,9858.429112
25081.911147,-1397.408398,8116.454259,11734.402030
25081.913694,2297.109696,-8212.167163,7274.180704
25081.916242,-3579.662610,1435.693560,9896.714274
25081.918789,-1225.125171,9379.864592,12691.531070
25081.921336,2163.111630,-15773.486579,4843.072942
25081.923884,-2297.109696,9781.858789,12327.822035
25081.926431,497.707101,4039.084549,10987.841379
25081.928978,2048.256146,-14433.505923,5111.069074
25081.931526,-5359.922624,12366.107197,13399.806560
25081.934073,95.712904,-2009.970984,9418.149754
25081.936620,2392.822600,-8920.442653,6451.049730
25081.939168,-3005.385186,11083.554283,12653.245909
25081.941715,-1416.550979,6221.338760,11791.829773
25081.944262,1473.978722,-7274.180704,7465.606512
25081.946810,-2086.541307,2507.678085,10145.567824
25081.949357,-1569.691626,2124.826469,10432.706536
25081.951905,937.986459,-4728.217458,8327.022648
25081.954452,-1359.123237,2354.537438,10241.280728
25081.957000,-784.845813,-1071.984525,9590.432981
25081.959549,-19.142581,-708.275490,9265.009107
25081.962097,-1186.840010,957.129040,9934.999435
25081.964646,76.570323,-650.847747,9265.009107
25081.967194,-1454.836141,-287.138712,9590.432981
25081.969743,-1282.552914,3962.514226,10509.276859
25081.972292,3311.666478,-4575.076811,7867.600709
25081.974840,76.570323,-6910.471669,7523.034254
25081.977389,-1569.691626,13935.798822,13399.806560
25081.979937,2507.678085,-7121.040058,7274.180704
25081.982486,-727.418070,-2335.394858,8135.596840
25081.985034,-2928.814862,14624.931731,13954.941403
25081.987583,3349.951640,-12270.394293,5761.916821
25081.990131,-459.421939,3656.232933,9724.431046
25081.992680,-1665.404530,10413.563955,12557.533005
25081.995228,3905.086483,-11676.974288,5895.914886
25081.997777,-2239.681954,6087.340694,11006.983960
25082.000325,-1225.125171,5149.354235,11408.978157
25082.002874,1914.258080,-6795.616184,7235.895542
25082.005422,421.136778,-287.138712,8824.729749
25082.007971,-421.136778,5149.354235,10758.130410
25082.010519,1129.412267,-2699.103893,8480.163294
25082.013068,133.998066,3196.810994,10030.712339
25082.015616,57.427742,2852.244539,10068.997501
25082.018165,133.998066,-2679.961312,8633.303941
25082.020713,-114.855485,4632.504554,10604.989763
25082.023262,-325.423874,-803.988394,9169.296203
25082.025810,1990.828403,210.568389,9035.298138
25082.028359,-1531.406464,459.421939,9781.858789
25082.030907,-76.570323,4192.225195,10585.847182
25082.033456,1397.408398,-7695.317482,7312.465866
25082.036004,-4460.221326,4498.506488,11006.983960
25082.038553,-2565.105827,13246.665914,13667.802691
25082.041102,2335.394858,-11045.269122,6393.621987
25082.043650,133.998066,-1914.258080,8556.733618
25082.046199,-2239.681954,13055.240106,13572.089787
25082.048747,2469.392923,-13840.085918,5666.203917
25082.051296,-2277.967115,2335.394858,10107.282662
25082.053844,-2852.244539,8518.448456,12557.533005
25082.056393,2967.100024,-10317.851051,6317.051664
25082.058942,-1569.691626,4000.799387,10279.565890
25082.061491,-593.420005,4345.365842,11083.554283
25082.064041,1052.841944,-5455.635528,8039.883936
25082.066590,-1856.830338,2469.392923,10088.140082
25082.069139,-1320.838075,2316.252277,10279.565890
25082.071688,-38.285162,-3139.383251,9035.298138
25082.074238,-995.414202,1014.556782,10107.282662
25082.076787,708.275490,-306.281293,9303.294269
25082.079336,-401.994197,-2565.105827,8767.302006
25082.081886,-478.564520,3751.945837,10719.845248
25082.084435,-1186.840010,-2775.674216,8805.587168
25082.086984,995.414202,478.564520,9399.007173
25082.089534,-2258.824534,669.990328,9954.142016
25082.092083,669.990328,5493.920690,10758.130410
25082.094632,3158.525832,-6795.616184,7255.038123
25082.097181,-1856.830338,5187.639397,10758.130410
25082.099731,-1607.976787,14031.511726,13438.091722
25082.102280,1837.687757,-7580.461997,7063.612315
25082.104829,-1110.269686,-2526.820666,8461.020714
25082.107379,-1627.119368,13342.378818,13552.947206
25082.109928,4670.789715,-9533.005238,6393.621987
25082.112477,-344.566454,2852.244539,9705.288466
25082.115027,-2450.250342,8231.309744,12289.536874
25082.117576,2163.111630,-8403.592971,6929.614250
25082.120125,-1225.125171,3235.096155,9896.714274
25082.122675,-95.712904,4575.076811,10796.415571
25082.125224,2163.111630,-4287.938099,8135.596840
25082.127773,153.140646,3713.660675,10145.567824
25082.130322,19.142581,2105.683888,9877.571693
25082.132872,957.129040,-669.990328,8901.300072
25082.135421,-861.416136,1282.552914,9686.145885
25082.137970,-0.000000,1818.545176,9973.284597
25082.140520,153.140646,-478.564520,9284.151688
25082.143070,1761.117434,2354.537438,9686.145885
25082.145620,-1339.980656,-1531.406464,9131.011042
25082.148170,325.423874,5417.350366,10892.128475
25082.150720,593.420005,-7982.456194,7389.036189
25082.153270,-3713.660675,5398.207786,11255.837510
25082.155819,210.568389,2794.816797,10681.560086
25082.158369,1052.841944,-12595.818166,5819.344563
25082.160919,-2794.816797,13170.095590,13629.517530
25082.163469,-1416.550979,10356.136213,12653.245909
25082.166019,1971.685822,-14376.078181,5321.637462
25082.168569,-3675.375514,6163.911018,11389.835576
25082.171119,-1799.402595,4421.936165,11485.548480
25082.173668,2737.389054,-9934.999435,6259.623922
25082.176218,-2124.826469,6680.760699,11121.839445
25082.178768,19.142581,2469.392923,10643.274925
25082.181318,803.988394,-5819.344563,7714.460062
25082.183868,-2277.967115,3407.379382,10470.991698
25082.186418,-1244.267752,38.285162,9858.429112
25082.188968,-172.283227,-2909.672282,8958.727814
25082.191517,-1339.980656,708.275490,9915.856854
25082.194067,555.134843,-784.845813,9437.292334
25082.196617,-248.853550,-1301.695494,9207.581365
25082.199167,-191.425808,957.129040,9877.571693
25082.201717,-2143.969050,-1512.263883,9513.862658
25082.204267,267.996131,3139.383251,10183.852986
25082.206817,1014.556782,-4689.932296,8059.026517
25082.209367,-1665.404530,6967.899411,11294.122672
25082.211916,3101.098090,861.416136,9494.720077
25082.214466,708.275490,-8307.880067,6546.762634
25082.217016,-2086.541307,14739.787216,13533.804626
25082.219566,1569.691626,-6661.618118,7484.749093
25082.222116,-267.996131,-4077.369710,8001.598774
25082.224666,-1761.117434,13744.373014,13572.089787
25082.227216,1416.550979,1493.121302,9820.143950
25082.229765,2909.672282,-8250.452325,6431.907149
25082.232315,-3215.953574,10049.854920,12442.677520
25082.234865,612.562586,-1225.125171,9533.005238
25082.237415,1110.269686,-4728.217458,7637.889739
25082.239965,-1301.695494,6049.055533,10968.698798
25082.242498,1244.267752,440.279358,9628.718142
25082.245032,1225.125171,-880.558717,8824.729749
25082.247566,-172.283227,3656.232933,9954.142016
25082.250099,-325.423874,1244.267752,9590.432981
25082.252633,-95.712904,459.421939,9590.432981
25082.255166,612.562586,-38.285162,9418.149754
25082.257700,-133.998066,1588.834206,9303.294269
25082.260233,287.138712,5551.348432,10719.845248
25082.262767,2124.826469,-5225.924558,7925.028451
25082.265300,-3617.947771,1129.412267,10088.140082
25082.267834,-76.570323,7886.743290,11944.970419
25082.270367,1110.269686,-15964.912387,5034.498750
25082.272901,-3215.953574,12327.822035,13170.095590
25082.275434,535.992262,631.705166,10279.565890
25082.277968,3081.955509,-14490.933666,4651.647134
25082.280502,-4230.510357,17094.324654,14356.935600
25082.283035,765.703232,-6240.481341,8346.165229
25082.285569,1052.841944,-8939.585234,6757.331022
25082.288102,-4019.941968,13782.658176,13954.941403
25082.290636,-784.845813,4823.930362,11351.550414
25082.293169,2143.969050,-8518.448456,6680.760699
25082.295703,-2009.970984,3847.658741,10241.280728
25082.298236,-957.129040,1971.685822,10604.989763
25082.300770,38.285162,-3407.379382,8709.874264
25082.303303,-1129.412267,1244.267752,9896.714274
25082.305837,-1416.550979,-1856.830338,9647.860723
25082.308370,918.843878,306.281293,9705.288466
25082.310904,344.566454,-708.275490,9131.011042
25082.313438,-631.705166,-38.285162,9494.720077
25082.315971,-1550.549045,2775.674216,10451.849117
25082.318505,574.277424,-4402.793584,8365.307810
25082.321038,-1263.410333,1799.402595,8078.169098
25082.323572,-1416.550979,13074.382686,12863.814298
25082.326105,4594.219392,-8595.018779,6738.188442
25082.328639,-803.988394,-229.710970,8843.872330
25082.331172,-1722.832272,15141.781413,13974.083984
25082.333706,3273.381317,-15620.345933,4498.506488
25082.336239,-2718.246474,6489.334891,11083.554283
25082.338773,-823.130974,8575.876198,12270.394293
25082.341306,5379.065205,-13323.236237,4881.358104
25082.343843,-2258.824534,11753.544611,12251.251712
25082.346379,-880.558717,2603.390989,10662.417506
25082.348915,1225.125171,-8690.731683,6719.045861
25082.351452,-2450.250342,8288.737486,11810.972354
25082.353988,-784.845813,6719.045861,11408.978157
25082.356524,2411.965181,-4804.787781,7925.028451
25082.359061,363.709035,2833.101958,9820.143950
25082.361597,-57.427742,4747.360038,10509.276859
25082.364133,421.136778,-2450.250342,8422.735552
25082.366669,-1225.125171,2584.248408,10145.567824
25082.369206,421.136778,1186.840010,9839.286531
25082.371742,899.701298,-1722.832272,8882.157491
25082.374278,918.843878,4862.215523,10260.423309
25082.376815,1205.982590,-4383.651003,8269.594906
25082.379351,-3349.951640,4307.080680,10892.128475
25082.381887,976.271621,1454.836141,10164.710405
25082.384424,1588.834206,-13552.947206,5685.346498
25082.386960,-1837.687757,5283.352301,10968.698798
25082.389496,-842.273555,7197.610381,12174.681389
25082.392032,3311.666478,-15352.349802,4613.361973
25082.394569,-3503.092286,12212.966550,12806.386555
25082.397105,-1186.840010,1148.554848,10528.419440
25082.399641,2297.109696,-12729.816232,5800.201982
25082.402178,-3062.812928,11217.552349,13016.954944
25082.404714,669.990328,-1378.265818,9513.862658
25082.407250,1033.699363,-5704.489078,7293.323285
25082.409787,-2182.254211,6719.045861,11217.552349
25082.412323,382.851616,-2067.398726,9322.436850
25082.414859,-325.423874,-2373.680019,8537.591037
25082.417395,-1397.408398,1569.691626,10088.140082
25082.419932,-957.129040,-1244.267752,9667.003304
25082.422468,727.418070,-976.271621,9188.438784
25082.425004,-727.418070,1684.547110,9915.856854
25082.427541,306.281293,-1205.982590,9073.583299
25082.430077,-2354.537438,172.283227,9934.999435
25082.432613,95.712904,2641.676150,10394.421374
25082.435150,1320.838075,-6738.188442,7561.319416
25082.437686,-2086.541307,9686.145885,12002.398162
25082.440222,3675.375514,-287.138712,9073.583299
25082.442758,784.845813,-8901.300072,6393.621987
25082.445297,-2469.392923,16960.326589,14299.507858
25082.447835,-1167.697429,6680.760699,11887.542677
25082.450374,2641.676150,-13859.228499,5321.637462
25082.452912,-2239.681954,12672.388490,12863.814298
25082.455451,1320.838075,1263.410333,9801.001370
25082.457989,3292.523898,-7944.171032,6336.194245
25082.460527,-3120.240670,9839.286531,12289.536874
25082.463066,153.140646,-1091.127106,9628.718142
25082.465604,689.132909,-3847.658741,8020.741355
25082.468143,-727.418070,5436.492947,10758.130410
25082.470681,1607.976787,-1071.984525,9016.155557
25082.473219,976.271621,1780.260014,9647.860723
25082.475758,-0.000000,3828.516160,9915.856854
25082.478296,-478.564520,-2526.820666,8843.872330
25082.480835,-306.281293,1129.412267,9762.716208
25082.483373,-650.847747,2794.816797,10490.134278
25082.485912,2967.100024,-1799.402595,8461.020714
25082.488450,-937.986459,153.140646,9207.581365
25082.490988,-1014.556782,7810.172966,11562.118803
25082.493527,1818.545176,-11102.696864,6412.764568
25082.496065,-4555.934230,4421.936165,11083.554283
25082.498604,-325.423874,7446.463931,12327.822035
25082.501142,2545.963246,-17036.896912,4421.936165
25082.503681,-3177.668413,12691.531070,13246.665914
25082.506219,727.418070,2469.392923,10356.136213
25082.508757,1684.547110,-14203.794954,4785.645200
25082.511296,-2469.392923,2163.111630,10145.567824
25082.513834,-3522.234867,9686.145885,13189.238171
25082.516373,3120.240670,-11983.255581,6010.770371
25082.518911,-937.986459,3656.232933,10068.997501
25082.521449,-957.129040,4843.072942,11102.696864
25082.523988,229.710970,-5321.637462,8097.311678
25082.526526,-2124.826469,3120.240670,10394.421374
25082.529065,-1263.410333,-2067.398726,9322.436850
25082.531603,-440.279358,-2641.676150,9284.151688
25082.534142,516.849682,3943.371645,10834.700733
25082.536680,1014.556782,-5302.494882,7905.885870
25082.539218,-1033.699363,3235.096155,10164.710405
25082.541757,-3311.666478,4881.358104,11255.837510
25082.544295,937.986459,-2201.396792,9111.868461
25082.546836,765.703232,-5627.918755,7867.600709
25082.549376,-2431.107762,12251.251712,12844.671717
25082.551917,4307.080680,-4268.795518,7925.028451
25082.554458,-95.712904,-6068.198114,6929.614250
25082.556998,-2450.250342,17247.465301,14510.076246
25082.559539,2890.529701,-10834.700733,6163.911018
25082.562080,-1225.125171,-1684.547110,8767.302006
25082.564620,-1952.543242,13897.513661,13916.656242
25082.567161,5474.778109,-11753.544611,5666.203917
25082.569701,-497.707101,4766.502619,9934.999435
25082.572242,-2201.396792,8652.446522,12844.671717
25082.574783,937.986459,-2297.109696,9303.294269
25082.577323,1397.408398,-5264.209720,7599.604578
25082.579864,-1071.984525,6891.329088,11274.980091
25082.582405,1454.836141,-19.142581,9360.722011
25082.584945,2009.970984,-459.421939,8595.018779
25082.587486,-1301.695494,4594.219392,10202.995566
25082.590026,-842.273555,363.709035,9609.575562
25082.592567,631.705166,-325.423874,9284.151688
25082.595108,-669.990328,861.416136,9973.284597
25082.597648,2411.965181,2545.963246,9992.427178
25082.600189,229.710970,-3503.092286,8173.882002
25082.602730,-1569.691626,7063.612315,11083.554283
25082.605270,306.281293,2411.965181,10356.136213
25082.607811,-1110.269686,-10183.852986,6948.756830
25082.610351,-2124.826469,11447.263318,13189.238171
25082.612892,1588.834206,-6317.051664,8001.598774
25082.615433,899.701298,-5685.346498,7427.321350
25082.617973,-2507.678085,13323.236237,13342.378818
25082.620514,1148.554848,-10068.997501,6661.618118
25082.623055,-1722.832272,-210.568389,9456.434915
25082.625595,-2871.387120,8020.741355,12595.818166
25082.628136,2469.392923,-9016.155557,7063.612315
25082.630676,-1071.984525,1875.972918,9628.718142
25082.633217,-995.414202,5111.069074,11064.411702
25082.635758,-0.000000,-4785.645200,9360.722011
25082.638298,-803.988394,-2163.111630,8997.012976
25082.640839,-2124.826469,1646.261949,10317.851051
25082.643380,612.562586,-3235.096155,9111.868461
25082.645920,229.710970,344.566454,9667.003304
25082.648463,-918.843878,1627.119368,9992.427178
25082.651005,-229.710970,-842.273555,8882.157491
25082.653547,-1933.400661,-248.853550,9667.003304
25082.656090,-1914.258080,3235.096155,10719.845248
25082.658632,4077.369710,-3235.096155,8499.305875
25082.661174,-1167.697429,-1320.838075,8863.014910
25082.663717,363.709035,11734.402030,12576.675586
25082.666259,2431.107762,-10930.413637,5742.774240
25082.668801,478.564520,-7274.180704,6604.190376
25082.671344,-3311.666478,14165.509792,13782.658176
25082.673886,2220.539373,-7235.895542,7752.745224
25082.676428,1607.976787,-3330.809059,7963.313613
25082.678971,-2354.537438,12653.245909,12978.669782
25082.681513,2641.676150,-6814.758765,7140.182638
25082.684056,-421.136778,-172.283227,8843.872330
25082.686598,-1014.556782,6144.768437,11562.118803
25082.689140,1359.123237,-4287.938099,8422.735552
25082.691683,-306.281293,2392.822600,9801.001370
25082.694225,306.281293,3235.096155,10126.425243
25082.696767,1454.836141,-803.988394,8633.303941
25082.699310,-861.416136,957.129040,9284.151688
25082.701852,-593.420005,3101.098090,10183.852986
25082.704394,76.570323,-1933.400661,9131.011042
25082.706937,1875.972918,1952.543242,9934.999435
25082.709479,-1225.125171,-363.709035,9399.007173
25082.712021,899.701298,4402.793584,10126.425243
25082.714564,76.570323,-7159.325219,7427.321350
25082.717106,-4077.369710,6431.907149,11657.831707
25082.719649,612.562586,-172.283227,10126.425243
25082.722191,842.273555,-11485.548480,6297.909083
25082.724733,-2986.242605,13323.236237,13840.085918
25082.727276,1741.974853,-4268.795518,8269.594906
25082.729818,210.568389,-6699.903280,5034.498750
25082.732360,-4058.227130,7771.887805,11715.259450
25082.734903,-1761.117434,2986.242605,11332.407834
25082.737445,2603.390989,-10700.702667,6221.338760
25082.739987,-1397.408398,6680.760699,11179.267187
25082.742530,-57.427742,1225.125171,10011.569758
25082.745072,-363.709035,-4364.508422,8097.311678
25082.747615,-2622.533570,4211.367776,10758.130410
25082.750158,-1167.697429,-3273.381317,8997.012976
25082.752702,325.423874,-2392.822600,9265.009107
25082.755245,-114.855485,3369.094221,10758.130410
25082.757789,516.849682,-3311.666478,8709.874264
25082.760332,-708.275490,1569.691626,9379.864592
25082.762876,-1780.260014,1033.699363,9801.001370
25082.765420,-2029.113565,1263.410333,10126.425243
25082.767963,3579.662610,-306.281293,9284.151688
25082.770507,-248.853550,-4517.649069,8135.596840
25082.773051,-516.849682,12576.675586,12844.671717
25082.775594,1971.685822,-7331.608446,6833.901346
25082.778138,-1091.127106,248.853550,8805.587168
25082.780682,-2316.252277,12710.673651,13418.949141
25082.783225,2890.529701,-11638.689126,6240.481341
25082.785769,-516.849682,3790.230998,10279.565890
25082.788312,-1129.412267,8614.161360,11964.113000
25082.790856,3522.234867,-9590.432981,6087.340694
25082.793400,689.132909,4957.928427,7657.032320
25082.795943,-1665.404530,7427.321350,11734.402030
25082.798487,1205.982590,-1282.552914,9379.864592
25082.801031,1071.984525,-1665.404530,8595.018779
25082.803574,-306.281293,4402.793584,10490.134278
25082.806118,344.566454,1722.832272,9628.718142
25082.808662,401.994197,-287.138712,8843.872330
25082.811205,-516.849682,1512.263883,9571.290400
25082.813749,-823.130974,2335.394858,10413.563955
25082.816292,2679.961312,-459.421939,9284.151688
25082.818836,-612.562586,-3005.385186,8671.589102
25082.821380,-1416.550979,9858.429112,11964.113000
25082.823923,1780.260014,-9552.147819,6623.332957
25082.826467,-1167.697429,-11676.974288,6163.911018
25082.829011,-3292.523898,15467.205286,14567.503989
25082.831554,2316.252277,-9667.003304,7159.325219
25082.834098,1014.556782,-6125.625856,7465.606512
25082.836641,-3445.664544,16060.625291,14184.652373
25082.839185,2545.963246,-12672.388490,5781.059402
25082.841729,-1684.547110,267.996131,9245.866526
25082.844272,-3847.658741,10509.276859,13304.093656
25082.846816,2718.246474,-11160.124606,6451.049730
25082.849360,-1071.984525,2373.680019,9781.858789
25082.851905,-1071.984525,5264.209720,11294.122672
25082.854450,516.849682,-6010.770371,7810.172966
25082.856995,-612.562586,-1646.261949,9073.583299
25082.859540,-2182.254211,2277.967115,10585.847182
25082.862085,918.843878,-3254.238736,8977.870395
25082.864630,-133.998066,-229.710970,9705.288466
25082.867175,-133.998066,1320.838075,9858.429112
25082.869720,-1627.119368,-861.416136,9016.155557
25082.872265,631.705166,1741.974853,9724.431046
25082.874810,-1761.117434,-3943.371645,8748.159426
25082.877355,114.855485,8977.870395,11906.685258
25082.879900,3560.520029,-7369.893608,7235.895542
25082.882445,-1244.267752,2986.242605,9896.714274
25082.884990,-1071.984525,11236.694930,12500.105262
25082.887535,2584.248408,-13016.954944,5053.641331
25082.890080,382.851616,-5781.059402,7446.463931
25082.892625,-2277.967115,14031.511726,13916.656242
25082.895170,4536.791650,-8824.729749,6891.329088
25082.897715,440.279358,459.421939,8843.872330
25082.900260,-2603.390989,10853.843314,12691.531070
25082.902805,1588.834206,-7695.317482,7255.038123
25082.905350,-669.990328,1397.408398,9494.720077
25082.907895,-57.427742,5953.342629,11294.122672
25082.910440,2526.820666,-4326.223261,7925.028451
25082.912985,363.709035,3943.371645,10068.997501
25082.915530,-1473.978722,3196.810994,10298.708470
25082.918075,382.851616,-1990.828403,8518.448456
25082.920620,-248.853550,440.279358,9418.149754
25082.923165,1684.547110,2239.681954,10145.567824
25082.925710,-535.992262,-2163.111630,9131.011042
25082.928255,880.558717,5953.342629,10758.130410
25082.930801,-325.423874,-8614.161360,7063.612315
25082.933346,-4134.797453,7733.602643,11772.687192
25082.935891,708.275490,-401.994197,9781.858789
25082.938436,1339.980656,-12327.822035,6010.770371
25082.940981,-3388.236802,15026.925928,14337.793019
25082.943526,2048.256146,-6297.909083,7982.456194
25082.946071,-76.570323,-6585.047795,7025.327154
25082.948616,-5474.778109,14988.640766,14108.082050
25082.951161,2392.822600,-11217.552349,6585.047795
25082.953707,3081.955509,-11830.114934,5895.914886
25082.956253,-1818.545176,7810.172966,11791.829773
25082.958798,-478.564520,1167.697429,10260.423309
25082.961344,-114.855485,-4843.072942,7944.171032
25082.963890,-2775.674216,3330.809059,10528.419440
25082.966436,-1722.832272,-2105.683888,9437.292334
25082.968982,1339.980656,-535.992262,9456.434915
25082.971528,535.992262,-995.414202,9494.720077
25082.974074,-210.568389,-325.423874,9667.003304
25082.976620,-2029.113565,3215.953574,10298.708470
25082.979166,593.420005,-3943.371645,8097.311678
25082.981712,-2947.957443,842.273555,9915.856854
25082.984258,-1588.834206,13131.810429,13170.095590
25082.986804,4460.221326,-7140.182638,7216.752962
25082.989350,-459.421939,-3062.812928,7905.885870
25082.991895,-2431.107762,17496.318851,14414.363342
25082.994441,3483.949706,-13954.941403,4900.500685
25082.996987,-1588.834206,2967.100024,9801.001370
25082.999533,-1607.976787,11562.118803,13323.236237
25083.002079,5608.776174,-14242.080115,5206.781978
25083.004625,-1971.685822,8748.159426,11485.548480
25083.007171,-1435.693560,6317.051664,11504.691061
25083.009717,2048.256146,-9954.142016,6144.768437
25083.012263,-1512.263883,6872.186507,11236.694930
25083.014809,-669.990328,8001.598774,11734.402030
25083.017355,2718.246474,-3637.090352,8135.596840
25083.019901,593.420005,1818.545176,9533.005238
25083.022447,-2086.541307,4441.078746,10643.274925
25083.024992,861.416136,-2067.398726,8518.448456
25083.027538,-727.418070,2143.969050,9915.856854
25083.030084,2029.113565,2086.541307,9992.427178
25083.032630,-95.712904,-3522.234867,8863.014910
25083.035176,38.285162,7197.610381,11217.552349
25083.037722,440.279358,-9111.868461,6910.471669
25083.040268,-4326.223261,5800.201982,11160.124606
25083.042814,114.855485,3751.945837,11140.982026
25083.045360,1837.687757,-14912.070443,5321.637462
25083.047906,-708.275490,593.420005,9628.718142
25083.050452,-2316.252277,12691.531070,13438.091722
25083.052998,2737.389054,-15792.629160,4632.504554
25083.055544,-3675.375514,6929.614250,11313.265253
25083.058091,-2258.824534,6470.192310,12098.111066
25083.060638,3445.664544,-12940.384621,5627.918755
25083.063185,-1301.695494,5532.205851,10987.841379
25083.065732,-765.703232,2813.959378,10643.274925
25083.068279,-133.998066,-5034.498750,8078.169098
25083.070826,-2699.103893,3081.955509,10356.136213
25083.073373,-1091.127106,-2507.678085,9188.438784
25083.075920,631.705166,76.570323,9667.003304
25083.078467,-746.560651,2679.961312,10624.132344
25083.081014,248.853550,-1990.828403,8863.014910
25083.083560,-2450.250342,-1052.841944,9322.436850
25083.086107,-1971.685822,6833.901346,11428.120738
25083.088654,4345.365842,-8039.883936,6967.899411
25083.091201,-1703.689691,3292.523898,10107.282662
25083.093748,1397.408398,10298.708470,12461.820101
25083.096295,2641.676150,-15409.777544,4441.078746
25083.098842,-3445.664544,13246.665914,12844.671717
25083.101389,-382.851616,4498.506488,11045.269122
25083.103936,2947.957443,-13610.374949,5168.496816
25083.106483,-2890.529701,14682.359474,13725.230434
25083.109030,2239.681954,-1722.832272,9188.438784
25083.111576,3713.660675,-11753.544611,5761.916821
25083.114123,-2163.111630,5455.635528,10451.849117
25083.116670,-1148.554848,5781.059402,11504.691061
25083.119217,2086.541307,-6719.045861,7350.751027
25083.121764,-114.855485,4938.785846,10394.421374
25083.124311,191.425808,3483.949706,10241.280728
25083.126858,995.414202,-2775.674216,8422.735552
25083.129405,-1033.699363,3790.230998,10222.138147
25083.131952,-363.709035,1512.263883,9667.003304
25083.134499,1282.552914,-1493.121302,8882.157491
25083.137046,-555.134843,3828.516160,10566.704602
25083.139592,2086.541307,-1646.261949,9150.153622
25083.142139,-689.132909,-7925.028451,7331.608446
25083.144686,-3962.514226,9954.142016,12346.964616
25083.147233,1148.554848,-5934.200048,8020.741355
25083.149780,248.853550,-6872.186507,7523.034254
25083.152327,-2660.818731,13859.228499,14108.082050
25083.154874,2450.250342,-10987.841379,6585.047795
25083.157421,-1550.549045,153.140646,9092.725880
25083.159969,-4077.369710,11504.691061,13189.238171
25083.162517,2871.387120,-13323.236237,5647.061336
25083.165064,-1129.412267,3541.377448,10336.993632
25083.167612,-1205.982590,7082.754896,12136.396227
25083.170159,2048.256146,-8671.589102,6891.329088
25083.172707,-2048.256146,2507.678085,9973.284597
25083.175255,-3579.662610,5283.352301,11236.694930
25083.177802,344.566454,-3464.807125,8939.585234
25083.180350,1205.982590,-1722.832272,8824.729749
25083.182897,-1397.408398,3005.385186,10719.845248
25083.185445,861.416136,-1914.258080,9150.153622
25083.187993,-2507.678085,-1186.840010,9150.153622
25083.190540,-842.273555,4689.932296,10681.560086
25083.193088,1569.691626,-6278.766502,7714.460062
25083.195635,-995.414202,7637.889739,11447.263318
25083.198183,3062.812928,861.416136,9667.003304
25083.200731,765.703232,-8059.026517,6585.047795
25083.203278,-2277.967115,15065.211090,13572.089787
25083.205826,-899.701298,7235.895542,11734.402030
25083.208373,2833.101958,-12232.109131,5666.203917
25083.210921,-1933.400661,10662.417506,12404.392358
25083.213469,1339.980656,1052.841944,9934.999435
25083.216016,2775.674216,-8116.454259,6546.762634
25083.218564,-2603.390989,10298.708470,12136.396227
25083.221111,555.134843,-1531.406464,9245.866526
25083.223659,976.271621,-2813.959378,8307.880067
25083.226207,-267.996131,6470.192310,10987.841379
25083.228754,1665.404530,-1205.982590,8882.157491
25083.231302,133.998066,746.560651,9437.292334
25083.233849,-1205.982590,3579.662610,10241.280728
25083.236397,497.707101,-1129.412267,9265.009107
25083.238945,1837.687757,133.998066,9265.009107
25083.241492,-1435.693560,1990.828403,10241.280728
25083.244040,1722.832272,1799.402595,9954.142016
25083.246587,-363.709035,-7235.895542,7561.319416
25083.249135,-4192.225195,9322.436850,12212.966550
25083.251683,1052.841944,-4441.078746,8556.733618
25083.254230,535.992262,-7925.028451,7235.895542
25083.256778,-2679.961312,13112.667848,13897.513661
25083.259326,2009.970984,-8154.739421,7350.751027
25083.261874,-803.988394,-2450.250342,8288.737486
25083.264422,-4421.936165,11619.546546,13150.953010
25083.266970,2086.541307,-10930.413637,6508.477472
25083.269518,2182.254211,-8997.012976,6623.332957
25083.272066,-2067.398726,7905.885870,11810.972354
25083.274614,-229.710970,-516.849682,9781.858789
25083.277162,-248.853550,-5359.922624,7905.885870
25083.279710,-3426.521963,3790.230998,10892.128475
25083.282258,114.855485,-1091.127106,9513.862658
25083.284805,1397.408398,-3024.527766,8595.018779
25083.287353,-1186.840010,2507.678085,10509.276859
25083.289901,-210.568389,440.279358,9781.858789
25083.292449,-1684.547110,-3713.660675,8575.876198
25083.294997,-2775.674216,5168.496816,10700.702667
25083.297545,3637.090352,-2009.970984,8690.731683
25083.300093,2009.970984,-9016.155557,6872.186507
25083.302641,-1263.410333,12002.398162,12710.673651
25083.305189,746.560651,-1148.554848,9092.725880
25083.307737,229.710970,-6144.768437,7006.184573
25083.310285,-2699.103893,13648.660110,13438.091722
25083.312833,2335.394858,-7121.040058,7523.034254
25083.315381,957.129040,-2297.109696,8307.880067
25083.317929,-1933.400661,11102.696864,12691.531070
25083.320477,2335.394858,-7389.036189,7178.467800
25083.323025,-976.271621,1856.830338,9513.862658
25083.325573,-746.560651,5723.631659,11274.980091
25083.328121,1818.545176,-4402.793584,8059.026517
25083.330669,267.996131,4039.084549,10088.140082
25083.333217,-1473.978722,4977.071008,10738.987829
25083.335765,133.998066,-1799.402595,8901.300072
25083.338313,-57.427742,1914.258080,9571.290400
25083.340861,-229.710970,1856.830338,9858.429112
25083.343409,1780.260014,650.847747,9360.722011
25083.345957,1205.982590,-1722.832272,9265.009107
25083.348505,-3081.955509,3158.525832,10681.560086
25083.351053,976.271621,516.849682,9724.431046
25083.353601,-1780.260014,-8154.739421,7255.038123
25083.356149,-2297.109696,11408.978157,13112.667848
25083.358697,2029.113565,-7561.319416,7733.602643
25083.361245,880.558717,-5570.491013,7714.460062
25083.363794,-3024.527766,9915.856854,12193.823970
25083.366342,-574.277424,1761.117434,10413.563955
25083.368891,1895.115499,-10700.702667,6163.911018
25083.371440,-3292.523898,10126.425243,12634.103328
25083.373988,478.564520,-1301.695494,9743.573627
25083.376537,899.701298,-6336.194245,7274.180704
25083.379085,-2354.537438,5819.344563,11236.694930
25083.381634,-593.420005,-1493.121302,9571.290400
25083.384182,784.845813,-4441.078746,8231.309744
25083.386731,-1263.410333,3732.803256,10528.419440
25083.389279,-363.709035,-937.986459,9647.860723
25083.391828,1263.410333,-2277.967115,8901.300072
25083.394377,-2660.818731,497.707101,8997.012976
25083.396925,-2143.969050,5513.063270,10987.841379
25083.399474,3541.377448,-3598.805190,8212.167163
25083.402022,-574.277424,-746.560651,8958.727814
25083.404571,899.701298,10585.847182,12289.536874
25083.407119,2469.392923,-11064.411702,5895.914886
25083.409668,-2220.539373,7925.028451,11274.980091
25083.412216,-1148.554848,6948.756830,11638.689126
25083.414765,2641.676150,-11485.548480,5838.487144
25083.417313,-1780.260014,9820.143950,12155.538808
25083.419862,1454.836141,1263.410333,10011.569758
25083.422411,3081.955509,-7867.600709,6489.334891
25083.424959,-3196.810994,9724.431046,12059.825904
25083.427508,-1646.261949,7561.319416,11868.400096
25083.430056,2163.111630,-5072.783912,7829.315547
25083.432605,76.570323,2029.113565,9456.434915
25083.435153,-1110.269686,6029.912952,11217.552349
25083.437702,1244.267752,-3675.375514,8384.450390
25083.440250,153.140646,2124.826469,9494.720077
25083.442799,-1320.838075,2909.672282,10260.423309
25083.445347,2335.394858,459.421939,9150.153622
25083.447896,440.279358,-3311.666478,8614.161360
25083.450445,-2756.531635,6393.621987,11581.261384
25083.452993,1818.545176,-3349.951640,8671.589102
25083.455542,-2737.389054,-6144.768437,7676.174901
25083.458090,-2679.961312,9226.723946,12404.392358
25083.460639,612.562586,861.416136,10336.993632
25083.463187,2756.531635,-13189.238171,5321.637462
25083.465736,-3483.949706,13533.804626,13457.234302
25083.468285,727.418070,-2679.961312,9054.440718
25083.470834,976.271621,-8786.444587,6642.475538
25083.473382,-4039.084549,12442.677520,13399.806560
25083.475931,1416.550979,-5857.629725,8307.880067
25083.478480,248.853550,-4230.510357,7829.315547
25083.481029,-2392.822600,7503.891674,11983.255581
25083.483577,95.712904,-5053.641331,8633.303941
25083.486126,-38.285162,-1914.258080,8920.442653
25083.488675,-1397.408398,3905.086483,10126.425243
25083.491224,-650.847747,-478.564520,9801.001370
25083.493772,-19.142581,-344.566454,9494.720077
25083.496321,-1665.404530,-1320.838075,9284.151688
25083.498870,-2277.967115,2833.101958,10279.565890
25083.501419,3483.949706,-95.712904,9150.153622
25083.503967,-172.283227,-4460.221326,7925.028451
25083.506516,114.855485,12844.671717,12940.384621
25083.509065,2392.822600,-8575.876198,6642.475538
25083.511614,-1512.263883,1780.260014,9360.722011
25083.514162,-2392.822600,12385.249778,13284.951075
25083.516711,3235.096155,-11868.400096,5895.914886
25083.519260,-1052.841944,4843.072942,10585.847182
25083.521809,-2507.678085,12997.812363,13131.810429
25083.524357,2488.535504,-5206.781978,7905.885870
25083.526906,478.564520,-2871.387120,8039.883936
25083.529455,-1952.543242,9131.011042,12212.966550
25083.532003,2373.680019,-2852.244539,8480.163294
25083.534552,861.416136,-880.558717,8403.592971
25083.537101,-1646.261949,6833.901346,11274.980091
25083.539650,1167.697429,-2660.818731,8690.731683
25083.542198,153.140646,1263.410333,9379.864592
25083.544747,-229.710970,3024.527766,10126.425243
25083.547296,210.568389,325.423874,9360.722011
25083.549845,2029.113565,-478.564520,9265.009107
25083.552393,-1282.552914,-1205.982590,7963.313613
25083.554942,-3483.949706,9111.868461,12308.679454
25083.557491,1129.412267,-5819.344563,7982.456194
25083.560040,95.712904,-7140.182638,7312.465866
25083.562588,-2986.242605,13878.371080,14184.652373
25083.565137,2565.105827,-9954.142016,6814.758765
25083.567686,-918.843878,-1550.549045,8595.018779
25083.570235,-3943.371645,12787.243974,13514.662045
25083.572783,2813.959378,-12902.099459,5857.629725
25083.575332,-1320.838075,2526.820666,10011.569758
25083.577881,-1684.547110,7695.317482,12346.964616
25083.580429,1799.402595,-9284.151688,6795.616184
25083.582978,-2143.969050,2507.678085,10126.425243
25083.585527,-2833.101958,6585.047795,11791.829773
25083.588076,861.416136,-3751.945837,8652.446522
25083.590624,76.570323,-1837.687757,8901.300072
25083.593173,-440.279358,4211.367776,10834.700733
25083.595722,-842.273555,-4441.078746,8556.733618
25083.598270,153.140646,2871.387120,10164.710405
25083.600819,-1129.412267,-3407.379382,8843.872330
25083.603368,-593.420005,7216.752962,11160.124606
25083.605917,3330.809059,-2718.246474,8403.592971
25083.608465,-287.138712,-2143.969050,8422.735552
25083.611014,-1416.550979,12787.243974,12997.812363
25083.613563,2316.252277,-9456.434915,6278.766502
25083.616111,2086.541307,-9513.862658,6297.909083
25083.618660,-2297.109696,12270.394293,13112.667848
25083.621209,2775.674216,-3388.236802,8690.731683
25083.623758,1971.685822,-4804.787781,7389.036189
25083.626306,-3177.668413,10853.843314,12595.818166
25083.628855,1531.406464,-3445.664544,8614.161360
25083.631404,880.558717,-2603.390989,8231.309744
25083.633952,-689.132909,8556.733618,11600.403965
25083.636501,1703.689691,-2565.105827,8575.876198
25083.639050,248.853550,-401.994197,8977.870395
25083.641599,-727.418070,6144.768437,11006.983960
25083.644147,727.418070,-3828.516160,8250.452325
25083.646696,1014.556782,3905.086483,9092.725880
25083.649245,1167.697429,1646.261949,9954.142016
25083.651793,-2239.681954,-2565.105827,9188.438784
25083.654342,-0.000000,6585.047795,11370.692995
25083.656891,95.712904,-11332.407834,6355.336826
25083.659440,-1952.543242,6431.907149,11523.833642
25083.661988,-0.000000,2947.957443,10834.700733
25083.664537,2718.246474,-13725.230434,5379.065205
25083.667086,-3426.521963,12519.247843,13036.097525
25083.669635,535.992262,-823.130974,9590.432981
25083.672184,1301.695494,-9992.427178,6278.766502
25083.674733,-4134.797453,12729.816232,13380.663979
25083.677282,1799.402595,-5379.065205,8461.020714
25083.679831,1971.685822,-9954.142016,6546.762634
25083.682380,-2565.105827,4632.504554,10911.271056
25083.684929,-478.564520,1703.689691,10700.702667
25083.687478,1703.689691,-7178.467800,7408.178770
25083.690027,-2354.537438,5876.772306,11160.124606
25083.692575,650.847747,-1282.552914,9322.436850
25083.695124,-708.275490,-4766.502619,8307.880067
25083.697673,-363.709035,6814.758765,11466.405899
25083.700222,-459.421939,-6546.762634,8001.598774
25083.702771,-344.566454,8327.022648,11255.837510
25083.705320,2277.967115,-3062.812928,8480.163294
25083.707869,-19.142581,-612.562586,8843.872330
25083.710418,-1722.832272,11600.403965,12653.245909
25083.712967,823.130974,-1416.550979,8882.157491
25083.715516,1588.834206,-7140.182638,6948.756830
25083.718065,-2297.109696,12806.386555,13361.521398
25083.720614,3139.383251,-6144.768437,7810.172966
25083.723163,784.845813,-1588.834206,8403.592971
25083.725712,-2660.818731,10088.140082,12423.534939
25083.728261,1952.543242,-5551.348432,7886.743290
25083.730810,19.142581,612.562586,9188.438784
25083.733359,-382.851616,7025.327154,11236.694930
25083.735908,1722.832272,-4173.082614,7982.456194
25083.738457,-267.996131,2679.961312,9877.571693
25083.741006,-325.423874,4421.936165,10585.847182
25083.743554,1454.836141,-2335.394858,8709.874264
25083.746103,-976.271621,1282.552914,9456.434915
25083.748652,1205.982590,3464.807125,10451.849117
25083.751201,-1473.978722,-6929.614250,8020.741355
25083.753750,-1569.691626,9724.431046,12270.394293
25083.756299,918.843878,-10222.138147,6738.188442
25083.758848,-1014.556782,478.564520,9705.288466
25083.761397,-1627.119368,9169.296203,12863.814298
25083.763946,2947.957443,-14490.933666,5225.924558
25083.766495,-2603.390989,7963.313613,11523.833642
25083.769043,-1033.699363,5302.494882,11389.835576
25083.771592,2239.681954,-12787.243974,5742.774240
25083.774141,-842.273555,-535.992262,9169.296203
25083.776690,-2182.254211,9437.292334,12672.388490
25083.779239,1952.543242,-9341.579430,6833.901346
25083.781788,-2411.965181,1320.838075,9992.427178
25083.784337,-1263.410333,5551.348432,11810.972354
25083.786886,2431.107762,-9322.436850,6795.616184
25083.789435,-2277.967115,4517.649069,10777.272990
25083.791984,-880.558717,3426.521963,10758.130410
25083.794532,133.998066,-9494.720077,7044.469734
25083.797081,-1990.828403,9284.151688,11983.255581
25083.799630,2201.396792,-4498.506488,8346.165229
25083.802179,-267.996131,172.283227,8997.012976
25083.804728,1110.269686,9265.009107,11925.827838
25083.807277,1550.549045,-6470.192310,7369.893608
25083.809826,-497.707101,-172.283227,8843.872330
25083.812375,-2220.539373,12863.814298,13246.665914
25083.814924,3139.383251,-11121.839445,6221.338760
25083.817473,-803.988394,4096.512291,10336.993632
25083.820022,-478.564520,6814.758765,11581.261384
25083.822570,3196.810994,-9379.864592,6355.336826
25083.825119,-1684.547110,6987.041992,11006.983960
25083.827668,382.851616,2584.248408,10375.278794
25083.830217,1799.402595,-4594.219392,7829.315547
25083.832766,-1359.123237,6853.043926,10930.413637
25083.835315,497.707101,267.996131,9379.864592
25083.837864,2258.824534,-3388.236802,8135.596840
25083.840413,-880.558717,2718.246474,10068.997501
25083.842962,1110.269686,4862.215523,10470.991698
25083.845511,593.420005,-6948.756830,7503.891674
25083.848060,-2507.678085,8843.872330,12002.398162
25083.850609,1493.121302,-5761.916821,8193.024582
25083.853157,-2469.392923,-4153.940034,8346.165229
25083.855706,-2335.394858,12844.671717,13629.517530
25083.858255,2526.820666,-15007.783347,5359.922624
25083.860804,-1512.263883,4000.799387,10662.417506
25083.863353,-1952.543242,9054.440718,12748.958813
25083.865902,2258.824534,-14337.793019,5091.926493
25083.868451,-4096.512291,9418.149754,12078.968485
25083.870983,-3694.518094,11925.827838,13399.806560
25083.873515,2679.961312,-10719.845248,6661.618118
25083.876047,-1722.832272,229.710970,9284.151688
25083.878579,-2354.537438,7408.178770,12098.111066
25083.881111,1799.402595,-10585.847182,6872.186507
25083.883643,-1588.834206,3522.234867,10528.419440
25083.886175,-2105.683888,4115.654872,11102.696864
25083.888707,2622.533570,-8288.737486,7025.327154
25083.891239,-2833.101958,4383.651003,10777.272990
25083.893771,650.847747,2029.113565,10394.421374
25083.896303,-191.425808,-8614.161360,7197.610381
25083.898835,-1799.402595,13686.945272,12882.956878
25083.901367,1875.972918,4651.647134,10758.130410
25083.903899,1837.687757,-11121.839445,5647.061336
25083.906431,-2526.820666,15409.777544,13591.232368
25083.908963,1186.840010,-3694.518094,8384.450390
25083.911495,1416.550979,-6470.192310,6929.614250
25083.914027,-2163.111630,13323.236237,13495.519464
25083.916559,3522.234867,-7523.034254,7465.606512
25083.919091,574.277424,-172.283227,8882.157491
25083.921623,-1914.258080,8824.729749,12098.111066
25083.924155,1933.400661,-5742.774240,7771.887805
25083.926687,-229.710970,2545.963246,9896.714274
25083.929219,-574.277424,5264.209720,10777.272990
25083.931751,823.130974,-1091.127106,8977.870395
25083.934283,1205.982590,-459.421939,8882.157491
25083.936815,-1741.974853,4728.217458,10738.987829
25083.939347,2163.111630,-267.996131,8977.870395
25083.941879,-1071.984525,-1952.543242,8805.587168
25083.944411,-727.418070,7657.032320,11676.974288
25083.946943,1684.547110,-10336.993632,6929.614250
25083.949475,-3751.945837,4173.082614,10834.700733
25083.952007,-861.416136,5379.065205,11562.118803
25083.954539,2048.256146,-14644.074312,5225.924558
25083.957071,-3081.955509,11408.978157,13131.810429
25083.959603,172.283227,459.421939,10241.280728
25083.962135,1320.838075,-11026.126541,5838.487144
25083.964667,-2756.531635,3885.943902,10260.423309
25083.967199,-2297.109696,6891.329088,12040.683323
25083.969731,2909.672282,-11772.687192,6029.912952
25083.972266,-2565.105827,5398.207786,10892.128475
25083.974800,-1186.840010,2565.105827,10700.702667
25083.977334,1225.125171,-9628.718142,6872.186507
25083.979868,-2545.963246,6412.764568,11504.691061
25083.982403,-842.273555,-57.427742,9934.999435
25083.984937,2201.396792,-6240.481341,7465.606512
25083.987471,-3158.525832,5666.203917,11198.409768
25083.990006,1263.410333,-689.132909,9686.145885
25083.992540,-363.709035,-6967.899411,7503.891674
25083.995074,-2124.826469,7523.034254,11102.696864
25083.997609,2029.113565,4977.071008,10872.985894
25084.000143,2297.109696,-11581.261384,5474.778109
25084.002677,-2660.818731,14988.640766,13514.662045
25084.005212,899.701298,-1952.543242,8939.585234
25084.007746,1665.404530,-7542.176835,6776.473603
25084.010280,-2143.969050,12863.814298,13265.808494
25084.012815,3177.668413,-5876.772306,7944.171032
25084.015349,957.129040,-1588.834206,8403.592971
25084.017883,-1741.974853,8671.589102,11944.970419
25084.020418,1684.547110,-4632.504554,8097.311678
25084.022952,172.283227,2105.683888,9628.718142
25084.025486,-612.562586,4594.219392,10585.847182
25084.028021,669.990328,-516.849682,9073.583299
25084.030555,1397.408398,574.277424,9226.723946
25084.033089,-1091.127106,2641.676150,10068.997501
25084.035623,1665.404530,1397.408398,9494.720077
25084.038158,210.568389,-2565.105827,8690.731683
25084.040692,-2411.965181,5302.494882,11236.694930
25084.043226,1703.689691,-3943.371645,8690.731683
25084.045761,-2258.824534,-4728.217458,8212.167163
25084.048295,-2373.680019,11274.980091,13036.097525
25084.050829,2201.396792,-11408.978157,6297.909083
25084.053364,-746.560651,76.570323,9399.007173
25084.055898,-2297.109696,10336.993632,12940.384621
25084.058432,746.560651,-2852.244539,8920.442653
25084.060967,287.138712,-6508.477472,7350.751027
25084.063501,-3426.521963,10470.991698,12787.243974
25084.066035,1435.693560,-6278.766502,8116.454259
25084.068570,-574.277424,-2756.531635,8499.305875
25084.071104,-2220.539373,6412.764568,11696.116869
25084.073640,1225.125171,-6240.481341,8097.311678
25084.076176,-803.988394,-76.570323,9552.147819
25084.078712,-2373.680019,3694.518094,10853.843314
25084.081248,1282.552914,-3579.662610,8441.878133
25084.083784,-1780.260014,-880.558717,9513.862658
25084.086320,-1397.408398,5034.498750,11045.269122
25084.088857,3369.094221,-5532.205851,9571.290400
25084.091393,976.271621,-6910.471669,7235.895542
25084.093929,-1818.545176,13935.798822,13112.667848
25084.096465,2086.541307,-4938.785846,7905.885870
25084.099001,153.140646,-2871.387120,7886.743290
25084.101537,-2641.676150,13361.521398,13495.519464
25084.104073,2450.250342,-8231.309744,7063.612315
25084.106609,-95.712904,-555.134843,8805.587168
25084.109145,-918.843878,8575.876198,11983.255581
25084.111681,2450.250342,-6929.614250,7350.751027
25084.114218,-765.703232,3541.377448,10011.569758
25084.116754,-38.285162,3503.092286,10547.562021
25084.119290,1052.841944,-2833.101958,8403.592971
25084.121826,-401.994197,1780.260014,9513.862658
25084.124362,-133.998066,3292.523898,10126.425243
25084.126898,535.992262,-1435.693560,8843.872330
25084.129434,823.130974,4077.369710,10241.280728
25084.131970,-1397.408398,-612.562586,9207.581365
25084.134506,1378.265818,2316.252277,9915.856854
25084.137042,-765.703232,-5627.918755,8327.022648
25084.139578,-2871.387120,5972.485210,11466.405899
25084.142115,937.986459,-3675.375514,8767.302006
25084.144651,-38.285162,-6585.047795,7542.176835
25084.147187,-2603.390989,11026.126541,13189.238171
25084.149723,1416.550979,-7216.752962,7810.172966
25084.152259,1512.263883,-10183.852986,6183.053598
25084.154795,-3579.662610,8327.022648,11753.544611
25084.157331,-267.996131,-153.140646,9915.856854
25084.159867,1397.408398,-7274.180704,7255.038123
25084.162403,-2507.678085,6412.764568,11370.692995
25084.164939,-191.425808,-2392.822600,9188.438784
25084.167475,-38.285162,-4000.799387,8461.020714
25084.170012,-1722.832272,4479.363907,11083.554283
25084.172548,-325.423874,-3369.094221,8843.872330
25084.175085,421.136778,-440.279358,9131.011042
25084.177623,-2507.678085,1454.836141,10279.565890
25084.180160,1014.556782,-133.998066,9552.147819
25084.182698,803.988394,-4287.938099,7867.600709
25084.185235,-1473.978722,2258.824534,9743.573627
25084.187773,1110.269686,8863.014910,11830.114934
25084.190310,2469.392923,-10911.271056,5781.059402
25084.192848,-2297.109696,9379.864592,11734.402030
25084.195386,-516.849682,5627.918755,11274.980091
25084.197923,2909.672282,-10451.849117,5972.485210
25084.200461,-1627.119368,8556.733618,11849.257515
25084.202998,1493.121302,1071.984525,9992.427178
25084.205536,2469.392923,-6948.756830,6910.471669
25084.208073,-2603.390989,8748.159426,11696.116869
25084.210611,1473.978722,0.000000,9552.147819
25084.213148,957.129040,-3905.086483,7925.028451
25084.215686,-765.703232,4153.940034,10088.140082
25084.218223,-19.142581,4173.082614,10490.134278
25084.220761,1282.552914,-3503.092286,8231.309744
25084.223299,76.570323,4575.076811,10356.136213
25084.225836,-1512.263883,1225.125171,9877.571693
25084.228374,2450.250342,-76.570323,9207.581365
25084.230911,-1856.830338,-4402.793584,8633.303941
25084.233449,-2469.392923,8001.598774,12251.251712
25084.235986,1588.834206,-8327.022648,7274.180704
25084.238524,-976.271621,-2794.816797,8499.305875
25084.241061,-2258.824534,11102.696864,13342.378818
25084.243599,2411.965181,-11179.267187,6431.907149
25084.246136,1339.980656,1550.549045,6297.909083
25084.248674,-4249.652938,10949.556218,12653.245909
25084.251212,689.132909,-3483.949706,8863.014910
25084.253749,516.849682,-5474.778109,7599.604578
25084.256287,-2297.109696,7637.889739,11906.685258
25084.258824,344.566454,-4766.502619,8422.735552
25084.261362,-478.564520,-2163.111630,8901.300072
25084.263899,-1780.260014,4651.647134,11198.409768
25084.266437,133.998066,-5340.780043,8307.880067
25084.268974,-306.281293,1818.545176,9801.001370
25084.271512,-2105.683888,574.277424,10107.282662
25084.274050,689.132909,-593.420005,9360.722011
25084.276589,1186.840010,-2163.111630,8652.446522
25084.279128,-1014.556782,-325.423874,9054.440718
25084.281667,708.275490,9552.147819,11925.827838
25084.284206,2297.109696,-8307.880067,6623.332957
25084.286746,-1722.832272,5015.356170,10509.276859
25084.289285,-1225.125171,8786.444587,12289.536874
25084.291824,2775.674216,-10030.712339,6163.911018
25084.294363,-1091.127106,4881.358104,10643.274925
25084.296903,248.853550,4728.217458,11045.269122
25084.299442,3177.668413,-7561.319416,6776.473603
25084.301981,-2029.113565,5895.914886,10758.130410
25084.304520,995.414202,3369.094221,10566.704602
25084.307060,1435.693560,-5321.637462,7561.319416
25084.309599,-57.427742,842.273555,9188.438784
25084.312138,-612.562586,6795.616184,11217.552349
25084.314677,1129.412267,-3790.230998,8269.594906
25084.317217,880.558717,3081.955509,9705.288466
25084.319756,-1684.547110,1550.549045,10030.712339
25084.322295,1071.984525,1607.976787,9705.288466
25084.324834,535.992262,-6680.760699,7848.458128
25084.327373,-3866.801322,4900.500685,11408.978157
25084.329913,440.279358,1493.121302,10394.421374
25084.332452,823.130974,-11542.976222,5895.914886
25084.334991,-3139.383251,11217.552349,13150.953010
25084.337530,325.423874,-1282.552914,9609.575562
25084.340070,2335.394858,-9092.725880,5953.342629
25084.342609,-2718.246474,3924.229064,10298.708470
25084.345148,-1818.545176,5761.916821,11562.118803
25084.347687,1914.258080,-9992.427178,6623.332957
25084.350227,-2699.103893,4957.928427,10834.700733
25084.352766,-421.136778,1091.127106,10298.708470
25084.355305,823.130974,-7178.467800,7599.604578
25084.357844,-2392.822600,5340.780043,11294.122672
25084.360384,-267.996131,-2488.535504,9169.296203
25084.362923,57.427742,-1741.974853,8843.872330
25084.365462,-1167.697429,2641.676150,10432.706536
25084.368001,-1263.410333,-1684.547110,9341.579430
25084.370541,2469.392923,3005.385186,9820.143950
25084.373080,2258.824534,-5034.498750,7599.604578
25084.375619,-1167.697429,4900.500685,10528.419440
25084.378160,-57.427742,7446.463931,11581.261384
25084.380700,2124.826469,-10260.423309,5781.059402
25084.383241,-1856.830338,8288.737486,11523.833642
25084.385781,-459.421939,3924.229064,11026.126541
25084.388322,2699.103893,-9150.153622,6604.190376
25084.390862,-2201.396792,8154.739421,11600.403965
25084.393403,803.988394,1895.115499,10164.710405
25084.395944,1301.695494,-5551.348432,7542.176835
25084.398484,-1818.545176,7312.465866,11217.552349
25084.401025,727.418070,937.986459,9628.718142
25084.403565,2201.396792,-3924.229064,7905.885870
25084.406106,-363.709035,2794.816797,9801.001370
25084.408646,-593.420005,3924.229064,10643.274925
25084.411187,401.994197,-1512.263883,8786.444587
25084.413728,1110.269686,555.134843,9322.436850
25084.416268,-3120.240670,-172.283227,9954.142016
25084.418809,401.994197,4287.938099,10987.841379
25084.421349,267.996131,-11657.831707,6297.909083
25084.423890,-2411.965181,6987.041992,11715.259450
25084.426430,-19.142581,2928.814862,10777.272990
25084.428971,2411.965181,-13112.667848,5455.635528
25084.431512,-3273.381317,11140.982026,12844.671717
25084.434052,57.427742,612.562586,10068.997501
25084.436593,2718.246474,-11504.691061,6297.909083
25084.439133,-2411.965181,3349.951640,10260.423309
25084.441674,-1014.556782,5838.487144,11657.831707
25084.444214,1205.982590,-9801.001370,6757.331022
25084.446755,-1895.115499,5532.205851,11160.124606
25084.449296,-689.132909,746.560651,10222.138147
25084.451836,784.845813,-8001.598774,7427.321350
25084.454377,-2450.250342,8250.452325,11734.402030
25084.456917,-478.564520,-4479.363907,8748.159426
25084.459459,-669.990328,-229.710970,9265.009107
25084.462000,1588.834206,3369.094221,10298.708470
25084.464542,-440.279358,-3694.518094,8212.167163
25084.467083,-133.998066,8920.442653,11581.261384
25084.469624,708.275490,-114.855485,9169.296203
25084.472166,382.851616,-4728.217458,7599.604578
25084.474707,-2220.539373,12232.109131,12902.099459
25084.477249,1818.545176,-5321.637462,7848.458128
25084.479790,937.986459,-3024.527766,8269.594906
25084.482332,-1722.832272,9073.583299,12136.396227
25084.484873,2660.818731,-5302.494882,7829.315547
25084.487414,-669.990328,669.990328,9245.866526
25084.489956,-631.705166,6565.905214,11236.694930
25084.492497,1837.687757,-4173.082614,8059.026517
25084.495039,-19.142581,2947.957443,9762.716208
25084.497580,-76.570323,4996.213589,5991.627790
25084.500122,1033.699363,-1627.119368,9073.583299
25084.502663,440.279358,1837.687757,9494.720077
25084.505204,555.134843,593.420005,9590.432981
25084.507746,-2813.959378,-765.703232,9667.003304
25084.510287,746.560651,4153.940034,10872.985894
25084.512829,-363.709035,-11696.116869,6451.049730
25084.515370,-2488.535504,9628.718142,12634.103328
25084.517912,459.421939,-1512.263883,9322.436850
25084.520453,1818.545176,-11121.839445,5876.772306
25084.522995,-3905.086483,13476.376883,13648.660110
25084.525536,1359.123237,-4134.797453,8614.161360
25084.528077,574.277424,-6393.621987,7235.895542
25084.530619,-2986.242605,5953.342629,11102.696864
25084.533160,-803.988394,3962.514226,11217.552349
25084.535702,1454.836141,-9284.151688,6833.901346
25084.538243,-1875.972918,5379.065205,11102.696864
25084.540785,-555.134843,746.560651,10413.563955
25084.543326,957.129040,-6967.899411,7676.174901
25084.545867,-2086.541307,6546.762634,11160.124606
25084.548409,-1033.699363,-3369.094221,9073.583299
25084.550950,-497.707101,191.425808,9399.007173
25084.553492,2411.965181,1627.119368,9686.145885
25084.556033,-880.558717,-2354.537438,8556.733618
25084.558575,1110.269686,10222.138147,11925.827838
25084.561117,1225.125171,-1359.123237,8863.014910
25084.563659,363.709035,-5474.778109,7235.895542
25084.566201,-2603.390989,13897.513661,13457.234302
25084.568743,2373.680019,-6431.907149,7599.604578
25084.571285,1052.841944,-3503.092286,7982.456194
25084.573827,-1990.828403,10011.569758,12366.107197
25084.576369,3101.098090,-5838.487144,7637.889739
25084.578912,-708.275490,535.992262,9073.583299
25084.581454,-976.271621,7025.327154,11447.263318
25084.583996,1741.974853,-4096.512291,8059.026517
25084.586538,516.849682,2354.537438,9609.575562
25084.589080,-593.420005,5283.352301,10815.558152
25084.591622,1454.836141,-3043.670347,8480.163294
25084.594164,-612.562586,708.275490,9379.864592
25084.596707,1110.269686,2507.678085,9973.284597
25084.599249,-1799.402595,-5245.067139,8441.878133
25084.601791,-803.988394,8173.882002,11983.255581
25084.604333,937.986459,-10930.413637,6680.760699
