#time,accel_x,accel_y,accel_z
17544.061233,-95.712904,-382.851616,-9934.999435
17544.063751,-497.707101,957.129040,-10011.569758
17544.066269,574.277424,612.562586,-9858.429112
17544.068787,-612.562586,-1588.834206,-9858.429112
17544.071305,-1071.984525,2105.683888,-9839.286531
17544.073822,-555.134843,1684.547110,-9954.142016
17544.076340,191.425808,-114.855485,-9896.714274
17544.078858,-1952.543242,-1473.978722,-9877.571693
17544.081376,-1703.689691,2737.389054,-9915.856854
17544.083894,-382.851616,-823.130974,-9686.145885
17544.086412,-1378.265818,-1607.976787,-9877.571693
17544.088930,-325.423874,2277.967115,-10030.712339
17544.091448,-669.990328,689.132909,-9973.284597
17544.093965,-631.705166,-2067.398726,-9896.714274
17544.096483,-401.994197,1186.840010,-9858.429112
17544.099001,19.142581,1818.545176,-9877.571693
17544.101519,-2143.969050,-1454.836141,-9992.427178
17544.104037,-1493.121302,-1244.267752,-9934.999435
17544.106555,-574.277424,1627.119368,-9705.288466
17544.109073,153.140646,382.851616,-9954.142016
17544.111591,-1588.834206,-861.416136,-10030.712339
17544.114108,-401.994197,1263.410333,-9934.999435
17544.116626,-114.855485,401.994197,-9801.001370
17544.119144,-1014.556782,-1129.412267,-9992.427178
17544.121662,-1359.123237,1186.840010,-9839.286531
17544.124180,-1033.699363,727.418070,-9781.858789
17544.126698,-976.271621,-1473.978722,-9934.999435
17544.129216,-421.136778,631.705166,-9954.142016
17544.131733,-459.421939,1569.691626,-9896.714274
17544.134251,-1397.408398,-1856.830338,-9992.427178
17544.136769,-1378.265818,-1033.699363,-9896.714274
17544.139287,-497.707101,2526.820666,-9992.427178
17544.141805,-516.849682,899.701298,-9934.999435
17544.144323,-1493.121302,-2679.961312,-10011.569758
17544.146841,-995.414202,4058.227130,-9781.858789
17544.149359,1148.554848,-38.285162,-9896.714274
17544.151876,-3847.658741,-3043.670347,-10088.140082
17544.154394,1607.976787,746.560651,-10107.282662
17544.156912,-708.275490,-401.994197,-9973.284597
17544.159459,38.285162,1569.691626,-9820.143950
17544.162006,1722.832272,516.849682,-10030.712339
17544.164554,-1473.978722,-2469.392923,-10011.569758
17544.167101,784.845813,2239.681954,-10011.569758
17544.169648,-1014.556782,4613.361973,-9858.429112
17544.172195,-1263.410333,-3522.234867,-9915.856854
17544.174742,133.998066,-995.414202,-9915.856854
17544.177289,1339.980656,3273.381317,-10011.569758
17544.179836,-229.710970,-899.701298,-9915.856854
17544.182383,-1435.693560,-1129.412267,-10030.712339
17544.184930,38.285162,3235.096155,-9973.284597
17544.187478,478.564520,1761.117434,-9877.571693
17544.190025,229.710970,-2182.254211,-9992.427178
17544.192572,229.710970,765.703232,-9992.427178
17544.195119,574.277424,2220.539373,-9877.571693
17544.197666,-1397.408398,-1110.269686,-9839.286531
17544.200213,-1359.123237,-1741.974853,-9973.284597
17544.202760,344.566454,191.425808,-10049.854920
17544.205307,1454.836141,1186.840010,-9973.284597
17544.207855,-555.134843,-57.427742,-9992.427178
17544.210402,-1301.695494,708.275490,-9839.286531
17544.212949,-267.996131,1205.982590,-9839.286531
17544.215496,-229.710970,0.000000,-10011.569758
17544.218043,57.427742,172.283227,-9915.856854
17544.220590,382.851616,899.701298,-9934.999435
17544.223137,1282.552914,516.849682,-9762.716208
17544.225684,-918.843878,880.558717,-9858.429112
17544.228232,-1359.123237,1856.830338,-10068.997501
17544.230779,478.564520,957.129040,-9915.856854
17544.233326,-267.996131,-1110.269686,-9820.143950
17544.235873,1033.699363,555.134843,-9934.999435
17544.238420,-823.130974,2277.967115,-9934.999435
17544.240967,-440.279358,19.142581,-9858.429112
17544.243514,-1435.693560,153.140646,-9915.856854
17544.246061,1569.691626,1052.841944,-10068.997501
17544.248609,-1378.265818,1856.830338,-9839.286531
17544.251156,2220.539373,478.564520,-9781.858789
17544.253703,-918.843878,-3024.527766,-9877.571693
17544.256250,-3081.955509,4326.223261,-9973.284597
17544.258797,-38.285162,1875.972918,-9896.714274
17544.261364,-2947.957443,-7618.747158,-9801.001370
17544.263930,57.427742,-3158.525832,-9992.427178
17544.266497,1378.265818,4766.502619,-9781.858789
17544.269064,-1684.547110,-1780.260014,-9801.001370
17544.271631,-3177.668413,-1167.697429,-9839.286531
17544.274197,689.132909,5245.067139,-9820.143950
17544.276764,-421.136778,114.855485,-9877.571693
17544.279331,-2163.111630,-2928.814862,-10088.140082
17544.281897,-172.283227,535.992262,-9743.573627
17544.284464,-57.427742,1244.267752,-9590.432981
17544.287031,-1761.117434,-2239.681954,-10049.854920
17544.289598,-2048.256146,861.416136,-10164.710405
17544.292164,19.142581,2277.967115,-9877.571693
17544.294731,19.142581,1225.125171,-9801.001370
17544.297298,-1110.269686,-1435.693560,-9820.143950
17544.299864,-1033.699363,784.845813,-9934.999435
17544.302431,-133.998066,918.843878,-9915.856854
17544.304998,-1186.840010,-1301.695494,-9877.571693
17544.307565,-1263.410333,-248.853550,-9954.142016
17544.310131,-497.707101,1856.830338,-9992.427178
17544.312698,-382.851616,-114.855485,-9724.431046
17544.315265,-1148.554848,-842.273555,-9934.999435
17544.317831,-1129.412267,842.273555,-9934.999435
17544.320398,-1052.841944,0.000000,-9954.142016
17544.322965,-899.701298,-842.273555,-9934.999435
17544.325531,-306.281293,612.562586,-9801.001370
17544.328098,-1818.545176,535.992262,-9954.142016
17544.330665,-574.277424,1856.830338,-9801.001370
17544.333232,-784.845813,-363.709035,-9801.001370
17544.335798,38.285162,-1091.127106,-9992.427178
17544.338365,-1512.263883,631.705166,-10011.569758
17544.340932,401.994197,-363.709035,-9992.427178
17544.343498,-2373.680019,-1971.685822,-9781.858789
17544.346065,210.568389,3081.955509,-9934.999435
17544.348632,-1837.687757,-363.709035,-9915.856854
17544.351199,-1339.980656,765.703232,-9820.143950
17544.353765,2833.101958,306.281293,-9743.573627
17544.356332,-2545.963246,-2182.254211,-10107.282662
17544.358899,-363.709035,5168.496816,-9992.427178
17544.361465,880.558717,4536.791650,-9915.856854
17544.364043,-1416.550979,-3732.803256,-9915.856854
17544.366621,-1205.982590,593.420005,-10164.710405
17544.369198,995.414202,4230.510357,-9877.571693
17544.371776,-401.994197,-4402.793584,-9571.290400
17544.374354,-210.568389,-363.709035,-10011.569758
17544.376931,1186.840010,4268.795518,-9915.856854
17544.379509,-1646.261949,-382.851616,-9858.429112
17544.382087,-1607.976787,-1895.115499,-9896.714274
17544.384664,1167.697429,4460.221326,-9934.999435
17544.387242,1665.404530,38.285162,-9743.573627
17544.389820,-669.990328,-3732.803256,-9954.142016
17544.392398,-1091.127106,-1435.693560,-10030.712339
17544.394975,-421.136778,4096.512291,-10107.282662
17544.397553,-440.279358,937.986459,-9781.858789
17544.400131,-382.851616,-2354.537438,-9934.999435
17544.402708,516.849682,114.855485,-9954.142016
17544.405286,267.996131,2871.387120,-9934.999435
17544.407864,-1071.984525,-344.566454,-9992.427178
17544.410441,-1301.695494,-1110.269686,-9992.427178
17544.413019,1416.550979,1971.685822,-9973.284597
17544.415597,1684.547110,1359.123237,-9992.427178
17544.418174,-1033.699363,-1454.836141,-10011.569758
17544.420752,-1435.693560,1454.836141,-9973.284597
17544.423330,516.849682,2029.113565,-9839.286531
17544.425907,-267.996131,-325.423874,-9839.286531
17544.428485,248.853550,-1167.697429,-10107.282662
17544.431063,-248.853550,2967.100024,-9839.286531
17544.433640,95.712904,459.421939,-9724.431046
17544.436218,-1454.836141,-1110.269686,-9743.573627
17544.438796,612.562586,1493.121302,-10068.997501
17544.441373,-1129.412267,3177.668413,-9877.571693
17544.443951,2565.105827,-1607.976787,-9877.571693
17544.446529,-1588.834206,-2182.254211,-10011.569758
17544.449106,-1646.261949,5704.489078,-9839.286531
17544.451684,-995.414202,-1473.978722,-9724.431046
17544.454262,-3637.090352,-6183.053598,-10068.997501
17544.456839,210.568389,-516.849682,-10336.993632
17544.459417,803.988394,4039.084549,-9954.142016
17544.461995,-1722.832272,-3751.945837,-9934.999435
17544.464572,-2354.537438,1167.697429,-9973.284597
17544.467156,746.560651,5245.067139,-9820.143950
17544.469739,-842.273555,-1378.265818,-9858.429112
17544.472322,-2124.826469,-3024.527766,-10088.140082
17544.474906,-172.283227,2201.396792,-9896.714274
17544.477489,-287.138712,191.425808,-9686.145885
17544.480072,-2048.256146,-1933.400661,-9915.856854
17544.482656,-861.416136,1895.115499,-10068.997501
17544.485239,-133.998066,1052.841944,-9954.142016
17544.487822,-153.140646,-114.855485,-9801.001370
17544.490406,-516.849682,-803.988394,-9973.284597
17544.492989,-957.129040,1186.840010,-9992.427178
17544.495572,-516.849682,1033.699363,-9954.142016
17544.498156,-631.705166,-593.420005,-9954.142016
17544.500739,-957.129040,229.710970,-9934.999435
17544.503322,-650.847747,1071.984525,-9877.571693
17544.505905,-1033.699363,-421.136778,-9896.714274
17544.508489,-1550.549045,-631.705166,-9839.286531
17544.511072,-555.134843,650.847747,-9839.286531
17544.513655,-210.568389,-210.568389,-9896.714274
17544.516239,-1301.695494,-382.851616,-9992.427178
17544.518822,-1569.691626,0.000000,-9992.427178
17544.521405,-612.562586,746.560651,-9877.571693
17544.523989,-765.703232,1110.269686,-9877.571693
17544.526572,-306.281293,-38.285162,-9877.571693
17544.529155,-2048.256146,-976.271621,-9915.856854
17544.531739,19.142581,2737.389054,-9743.573627
17544.534322,-784.845813,-1646.261949,-9762.716208
17544.536905,-1722.832272,363.709035,-9858.429112
17544.539489,440.279358,95.712904,-10068.997501
17544.542072,-2833.101958,516.849682,-9973.284597
17544.544655,2277.967115,2105.683888,-9667.003304
17544.547239,-133.998066,-2718.246474,-9954.142016
17544.549822,-229.710970,3081.955509,-9992.427178
17544.552405,1225.125171,4747.360038,-10030.712339
17544.554988,-842.273555,-248.853550,-9801.001370
17544.557572,-1646.261949,-4249.652938,-10030.712339
17544.560155,842.273555,5781.059402,-9705.288466
17544.562738,899.701298,153.140646,-9667.003304
17544.565322,-1512.263883,-4077.369710,-10164.710405
17544.567905,650.847747,3024.527766,-10107.282662
17544.570493,401.994197,3866.801322,-10011.569758
17544.573081,-2277.967115,-3254.238736,-9954.142016
17544.575668,325.423874,2373.680019,-9954.142016
17544.578256,2316.252277,2469.392923,-9801.001370
17544.580844,-401.994197,-3962.514226,-9992.427178
17544.583432,-1435.693560,401.994197,-10049.854920
17544.586020,-1588.834206,3369.094221,-9896.714274
17544.588607,-516.849682,2699.103893,-9762.716208
17544.591195,-191.425808,-2143.969050,-9877.571693
17544.593783,995.414202,-1339.980656,-10011.569758
17544.596371,593.420005,3273.381317,-9896.714274
17544.598958,-267.996131,574.277424,-9877.571693
17544.601546,-842.273555,-823.130974,-10088.140082
17544.604134,287.138712,1397.408398,-10088.140082
17544.606722,-114.855485,1818.545176,-9934.999435
17544.609310,-421.136778,-861.416136,-9781.858789
17544.611897,-344.566454,440.279358,-9781.858789
17544.614485,574.277424,765.703232,-9934.999435
17544.617073,1014.556782,-497.707101,-9877.571693
17544.619661,-669.990328,-1952.543242,-10049.854920
17544.622249,-669.990328,2143.969050,-9973.284597
17544.624836,-478.564520,1914.258080,-9877.571693
17544.627424,1607.976787,-535.992262,-9858.429112
17544.630012,497.707101,-2852.244539,-10049.854920
17544.632600,-1914.258080,4651.647134,-10145.567824
17544.635187,2163.111630,631.705166,-9858.429112
17544.637775,-4115.654872,-5455.635528,-10222.138147
17544.640363,-1684.547110,5895.914886,-10011.569758
17544.642951,133.998066,1091.127106,-9781.858789
17544.645539,-1052.841944,-6508.477472,-9915.856854
17544.648126,727.418070,3464.807125,-9801.001370
17544.650714,459.421939,5321.637462,-9896.714274
17544.653302,-1531.406464,-2890.529701,-10164.710405
17544.655890,-1569.691626,-2201.396792,-10183.852986
17544.658477,306.281293,3885.943902,-9743.573627
17544.661065,-401.994197,535.992262,-9686.145885
17544.663653,-2124.826469,-4364.508422,-9762.716208
17544.666241,-1052.841944,2335.394858,-9934.999435
17544.668829,-344.566454,1914.258080,-10011.569758
17544.671416,-1473.978722,-2833.101958,-10145.567824
17544.674006,-421.136778,765.703232,-9858.429112
17544.676595,-114.855485,2737.389054,-9552.147819
17544.679184,-918.843878,-727.418070,-9934.999435
17544.681773,-2009.970984,-1607.976787,-10088.140082
17544.684362,-765.703232,-267.996131,-9992.427178
17544.686951,-478.564520,2373.680019,-9820.143950
17544.689540,-1607.976787,-516.849682,-9877.571693
17544.692130,-1818.545176,-1071.984525,-9896.714274
17544.694719,133.998066,803.988394,-9877.571693
17544.697308,-19.142581,631.705166,-10011.569758
17544.699897,-1416.550979,-1110.269686,-10049.854920
17544.702486,-1990.828403,-133.998066,-9992.427178
17544.705075,-535.992262,1914.258080,-9705.288466
17544.707665,-669.990328,-153.140646,-9858.429112
17544.710254,-153.140646,-1454.836141,-9992.427178
17544.712843,-861.416136,957.129040,-10030.712339
17544.715432,1033.699363,1780.260014,-9762.716208
17544.718021,-1971.685822,-1933.400661,-9858.429112
17544.720610,-957.129040,1033.699363,-9973.284597
17544.723199,-1052.841944,669.990328,-9896.714274
17544.725789,-1301.695494,1378.265818,-9781.858789
17544.728378,2603.390989,-650.847747,-9896.714274
17544.730967,-2526.820666,-2335.394858,-10011.569758
17544.733556,1014.556782,6087.340694,-9934.999435
17544.736145,823.130974,57.427742,-9724.431046
17544.738734,-459.421939,-3101.098090,-9973.284597
17544.741324,-593.420005,5666.203917,-10030.712339
17544.743913,38.285162,-516.849682,-10049.854920
17544.746502,-1110.269686,-5589.633594,-9896.714274
17544.749091,-1071.984525,-1071.984525,-10068.997501
17544.751680,1493.121302,5513.063270,-9858.429112
17544.754269,-746.560651,-899.701298,-9858.429112
17544.756858,-1512.263883,-2373.680019,-10011.569758
17544.759448,1129.412267,4230.510357,-10011.569758
17544.762037,344.566454,133.998066,-9954.142016
17544.764626,-689.132909,-2182.254211,-10011.569758
17544.767215,765.703232,2545.963246,-9839.286531
17544.769804,-0.000000,995.414202,-9858.429112
17544.772393,-612.562586,-1512.263883,-10011.569758
17544.774983,-861.416136,191.425808,-10011.569758
17544.777512,535.992262,2277.967115,-9973.284597
17544.780042,1263.410333,-267.996131,-9877.571693
17544.782572,-708.275490,-229.710970,-9762.716208
17544.785102,-803.988394,1722.832272,-9839.286531
17544.787632,-497.707101,727.418070,-9839.286531
17544.790162,-38.285162,-440.279358,-9934.999435
17544.792692,612.562586,689.132909,-9896.714274
17544.795222,669.990328,-191.425808,-9877.571693
17544.797752,1167.697429,-76.570323,-9858.429112
17544.800282,-1856.830338,1397.408398,-9973.284597
17544.802812,-1129.412267,2603.390989,-9973.284597
17544.805342,-1205.982590,-57.427742,-9973.284597
17544.807872,2833.101958,-593.420005,-10011.569758
17544.810402,-133.998066,574.277424,-9858.429112
17544.812932,-1875.972918,4173.082614,-9915.856854
17544.815462,1818.545176,382.851616,-9839.286531
17544.817992,-4498.506488,-4326.223261,-10164.710405
17544.820522,-1665.404530,6068.198114,-10088.140082
17544.823052,133.998066,-401.994197,-9686.145885
17544.825581,-555.134843,-6451.049730,-9820.143950
17544.828111,689.132909,3732.803256,-9724.431046
17544.830641,-880.558717,2067.398726,-9915.856854
17544.833171,-3981.656806,-3847.658741,-10126.425243
17544.835701,-401.994197,3445.664544,-9954.142016
17544.838231,2411.965181,2813.959378,-9781.858789
17544.840761,-1359.123237,-4862.215523,-10030.712339
17544.843291,-2488.535504,191.425808,-9954.142016
17544.845821,-1359.123237,3905.086483,-9877.571693
17544.848351,-535.992262,1071.984525,-10030.712339
17544.850881,-1569.691626,-3043.670347,-10068.997501
17544.853411,593.420005,1512.263883,-9820.143950
17544.855941,-172.283227,1799.402595,-9609.575562
17544.858471,-1761.117434,-555.134843,-9992.427178
17544.861001,-1837.687757,-382.851616,-10049.854920
17544.863531,95.712904,1512.263883,-10030.712339
17544.866061,-191.425808,-191.425808,-9858.429112
17544.868591,-1225.125171,-612.562586,-9934.999435
17544.871121,-899.701298,1052.841944,-9762.716208
17544.873650,-746.560651,-191.425808,-9973.284597
17544.876180,-1703.689691,-612.562586,-10030.712339
17544.878725,-957.129040,-995.414202,-10068.997501
17544.881270,-401.994197,880.558717,-9839.286531
17544.883814,-784.845813,823.130974,-9820.143950
17544.886359,-210.568389,-459.421939,-9915.856854
17544.888903,-1741.974853,-669.990328,-10049.854920
17544.891448,172.283227,344.566454,-10030.712339
17544.893992,-2258.824534,-382.851616,-9954.142016
17544.896537,382.851616,976.271621,-9896.714274
17544.899081,-2201.396792,-574.277424,-9705.288466
17544.901626,-153.140646,1780.260014,-9743.573627
17544.904170,1473.978722,-1971.685822,-9934.999435
17544.906715,-3426.521963,-516.849682,-10107.282662
17544.909260,1110.269686,5915.057467,-9877.571693
17544.911804,1416.550979,2545.963246,-9647.860723
17544.914349,-708.275490,-4613.361973,-9992.427178
17544.916893,-1014.556782,4326.223261,-10126.425243
17544.919438,612.562586,1397.408398,-10088.140082
17544.921982,-1167.697429,-6278.766502,-9954.142016
17544.924527,593.420005,2794.816797,-10049.854920
17544.927071,1588.834206,3790.230998,-9762.716208
17544.929616,-1512.263883,-4287.938099,-9934.999435
17544.932160,-516.849682,1741.974853,-10049.854920
17544.934705,823.130974,5513.063270,-10030.712339
17544.937250,-1473.978722,-3235.096155,-9954.142016
17544.939794,-1339.980656,-3254.238736,-9858.429112
17544.942339,746.560651,2909.672282,-9667.003304
17544.944883,535.992262,1416.550979,-9934.999435
17544.947428,-1263.410333,-2833.101958,-10011.569758
17544.949972,-746.560651,803.988394,-10011.569758
17544.952517,1359.123237,2852.244539,-9973.284597
17544.955061,-0.000000,-976.271621,-9954.142016
17544.957606,-842.273555,344.566454,-9858.429112
17544.960151,-133.998066,2565.105827,-9839.286531
17544.962695,38.285162,-516.849682,-10011.569758
17544.965240,-593.420005,-95.712904,-10049.854920
17544.967784,535.992262,1205.982590,-9915.856854
17544.970329,1646.261949,-421.136778,-9781.858789
17544.972873,-957.129040,-1493.121302,-9973.284597
17544.975418,-937.986459,2699.103893,-10107.282662
17544.977962,-689.132909,1531.406464,-9934.999435
17544.980519,2048.256146,-1588.834206,-10030.712339
17544.983073,-229.710970,-1282.552914,-10183.852986
17544.985628,-746.560651,4977.071008,-10030.712339
17544.988182,1033.699363,-2297.109696,-9686.145885
17544.990737,-4728.217458,-1320.838075,-9915.856854
17544.993291,229.710970,8001.598774,-9801.001370
17544.995845,-995.414202,-4785.645200,-9724.431046
17544.998400,-440.279358,-5972.485210,-10088.140082
17545.000954,708.275490,5015.356170,-9762.716208
17545.003509,76.570323,4441.078746,-9896.714274
17545.006063,-3388.236802,-4536.791650,-10164.710405
17545.008618,-1703.689691,957.129040,-10088.140082
17545.011172,2813.959378,4498.506488,-9820.143950
17545.013727,-708.275490,-3541.377448,-9973.284597
17545.016281,-2852.244539,-2124.826469,-10107.282662
17545.018836,-1397.408398,5111.069074,-9839.286531
17545.021390,-1110.269686,-1646.261949,-9820.143950
17545.023945,-1071.984525,-2507.678085,-9934.999435
17545.026499,1799.402595,2756.531635,-9954.142016
17545.029054,-612.562586,689.132909,-9934.999435
17545.031608,-2794.816797,133.998066,-9896.714274
17545.034163,-1071.984525,957.129040,-9686.145885
17545.036717,153.140646,497.707101,-9839.286531
17545.039272,-229.710970,-746.560651,-10107.282662
17545.041826,-765.703232,727.418070,-10011.569758
17545.044381,-1320.838075,1052.841944,-9820.143950
17545.046935,-2143.969050,-1531.406464,-9896.714274
17545.049490,-823.130974,-574.277424,-10030.712339
17545.052044,38.285162,612.562586,-9973.284597
17545.054599,-803.988394,344.566454,-9839.286531
17545.057153,-210.568389,-19.142581,-9839.286531
17545.059707,-1339.980656,95.712904,-9839.286531
17545.062262,95.712904,-401.994197,-10145.567824
17545.064816,-2392.822600,191.425808,-10164.710405
17545.067371,-401.994197,1225.125171,-9992.427178
17545.069925,-995.414202,-631.705166,-9820.143950
17545.072480,-1569.691626,1454.836141,-9552.147819
17545.075034,2297.109696,153.140646,-9954.142016
17545.077589,-3196.810994,-2947.957443,-10183.852986
17545.080143,1263.410333,5685.346498,-10030.712339
17545.082706,1454.836141,937.986459,-9647.860723
17545.085268,76.570323,-3024.527766,-9801.001370
17545.087831,-1033.699363,5149.354235,-9934.999435
17545.090394,-191.425808,-210.568389,-10107.282662
17545.092956,-1301.695494,-4996.213589,-10126.425243
17545.095519,1110.269686,3292.523898,-9992.427178
17545.098081,1186.840010,1990.828403,-9858.429112
17545.100644,-191.425808,-1397.408398,-9858.429112
17545.103207,-765.703232,-1569.691626,-9992.427178
17545.105769,287.138712,5474.778109,-10107.282662
17545.108332,-229.710970,0.000000,-10049.854920
17545.110894,-746.560651,-3062.812928,-9934.999435
17545.113457,1416.550979,2469.392923,-9705.288466
17545.116020,19.142581,2277.967115,-9915.856854
17545.118582,-1378.265818,-650.847747,-10068.997501
17545.121145,-229.710970,-172.283227,-9934.999435
17545.123707,880.558717,1435.693560,-9820.143950
17545.126270,-210.568389,823.130974,-9915.856854
17545.128832,-631.705166,-76.570323,-9877.571693
17545.131395,440.279358,210.568389,-10011.569758
17545.133958,-38.285162,1033.699363,-9839.286531
17545.136520,-363.709035,1339.980656,-9954.142016
17545.139083,1033.699363,-153.140646,-9954.142016
17545.141645,-823.130974,-1320.838075,-10030.712339
17545.144208,-19.142581,3043.670347,-10049.854920
17545.146771,-842.273555,1359.123237,-9743.573627
17545.149333,1761.117434,-1837.687757,-9896.714274
17545.151896,-937.986459,631.705166,-10030.712339
17545.154458,267.996131,4670.789715,-10145.567824
17545.157021,363.709035,-3981.656806,-9915.856854
17545.159583,-3943.371645,880.558717,-9762.716208
17545.162146,1339.980656,7484.749093,-9628.718142
17545.164709,-382.851616,918.843878,-9724.431046
17545.167271,-976.271621,-7446.463931,-9839.286531
17545.169834,344.566454,2679.961312,-9877.571693
17545.172396,57.427742,3139.383251,-9954.142016
17545.174959,-3541.377448,-4077.369710,-10068.997501
17545.177522,-1282.552914,2699.103893,-10011.569758
17545.180084,2775.674216,3522.234867,-9724.431046
17545.182647,-1665.404530,-3809.373579,-10164.710405
17545.185214,-2584.248408,191.425808,-10126.425243
17545.187782,-1186.840010,3503.092286,-9724.431046
17545.190350,-918.843878,-3503.092286,-9762.716208
17545.192917,-497.707101,-842.273555,-10030.712339
17545.195485,191.425808,3694.518094,-9915.856854
17545.198052,306.281293,2411.965181,-9877.571693
17545.200620,-1569.691626,-1665.404530,-10011.569758
17545.203188,-2086.541307,-937.986459,-9915.856854
17545.205755,-76.570323,3062.812928,-9839.286531
17545.208323,-631.705166,-650.847747,-9954.142016
17545.210890,-1799.402595,-2220.539373,-10011.569758
17545.213458,-1244.267752,2124.826469,-9724.431046
17545.216026,-459.421939,-133.998066,-9896.714274
17545.218593,-1435.693560,-1684.547110,-10126.425243
17545.221161,-440.279358,1512.263883,-9954.142016
17545.223728,440.279358,287.138712,-9839.286531
17545.226296,-1512.263883,-1014.556782,-9858.429112
17545.228864,-191.425808,-727.418070,-9839.286531
17545.231431,-1588.834206,727.418070,-9992.427178
17545.233999,363.709035,325.423874,-10126.425243
17545.236567,-2986.242605,-1378.265818,-9877.571693
17545.239134,325.423874,2450.250342,-9609.575562
17545.241702,1646.261949,-1875.972918,-9839.286531
17545.244269,-3349.951640,-593.420005,-10030.712339
17545.246837,2565.105827,5264.209720,-10030.712339
17545.249405,133.998066,-3866.801322,-9801.001370
17545.251972,650.847747,421.136778,-9934.999435
17545.254540,-440.279358,6891.329088,-9705.288466
17545.257107,-1722.832272,-3809.373579,-9934.999435
17545.259675,-1071.984525,-861.416136,-9877.571693
17545.262243,899.701298,3388.236802,-10049.854920
17545.264810,1646.261949,2679.961312,-9839.286531
17545.267378,-1454.836141,-3694.518094,-9973.284597
17545.269945,-0.000000,3541.377448,-10126.425243
17545.272513,631.705166,4977.071008,-9877.571693
17545.275081,-593.420005,-4115.654872,-9992.427178
17545.277648,-478.564520,-516.849682,-9820.143950
17545.280216,1110.269686,3866.801322,-9609.575562
17545.282783,-823.130974,-1110.269686,-9915.856854
17545.285351,-1167.697429,-1167.697429,-10145.567824
17545.287923,593.420005,2220.539373,-10068.997501
17545.290495,746.560651,516.849682,-9801.001370
17545.293066,57.427742,-823.130974,-9781.858789
17545.295638,-363.709035,172.283227,-9973.284597
17545.298210,-95.712904,1550.549045,-9973.284597
17545.300782,-421.136778,267.996131,-10011.569758
17545.303354,1091.127106,-38.285162,-10030.712339
17545.305925,-995.414202,861.416136,-9973.284597
17545.308497,-421.136778,1914.258080,-10011.569758
17545.311069,-727.418070,325.423874,-9896.714274
17545.313641,1186.840010,-1148.554848,-9934.999435
17545.316213,-1110.269686,2718.246474,-9820.143950
17545.318784,1990.828403,1780.260014,-9992.427178
17545.321356,-1933.400661,-3656.232933,-10030.712339
17545.323928,-1933.400661,4211.367776,-9877.571693
17545.326500,1052.841944,6183.053598,-9647.860723
17545.329071,-1914.258080,-5895.914886,-9781.858789
17545.331643,-153.140646,-3273.381317,-10222.138147
17545.334215,-421.136778,4173.082614,-10011.569758
17545.336787,-1493.121302,-1282.552914,-9973.284597
17545.339359,-2220.539373,-708.275490,-9858.429112
17545.341930,478.564520,4173.082614,-9724.431046
17545.344502,-267.996131,-133.998066,-9801.001370
17545.347074,-2239.681954,-1952.543242,-9954.142016
17545.349646,-325.423874,1512.263883,-9839.286531
17545.352218,-957.129040,-1359.123237,-9820.143950
17545.354789,-1952.543242,-2239.681954,-10011.569758
17545.357361,-459.421939,3215.953574,-10011.569758
17545.359933,57.427742,2622.533570,-10011.569758
17545.362505,-267.996131,-1129.412267,-10088.140082
17545.365076,-1473.978722,-669.990328,-10011.569758
17545.367648,-1091.127106,2890.529701,-9781.858789
17545.370220,-727.418070,880.558717,-9820.143950
17545.372792,-1493.121302,-3196.810994,-10107.282662
17545.375364,-803.988394,708.275490,-9992.427178
17545.377935,-631.705166,689.132909,-9839.286531
17545.380507,-1627.119368,-842.273555,-9839.286531
17545.383079,-459.421939,937.986459,-9896.714274
17545.385651,-401.994197,382.851616,-10088.140082
17545.388223,-861.416136,153.140646,-9877.571693
17545.390796,-1454.836141,306.281293,-10011.569758
17545.393370,-1263.410333,2297.109696,-9801.001370
17545.395944,306.281293,-1512.263883,-9934.999435
17545.398518,-2009.970984,-765.703232,-10030.712339
17545.401092,918.843878,191.425808,-10049.854920
17545.403666,-2450.250342,-555.134843,-10049.854920
17545.406240,899.701298,3215.953574,-9801.001370
17545.408814,1952.543242,-861.416136,-9934.999435
17545.411388,-363.709035,-995.414202,-9973.284597
17545.413962,842.273555,5704.489078,-10088.140082
17545.416536,-1320.838075,-784.845813,-9954.142016
17545.419110,-1703.689691,-2507.678085,-9954.142016
17545.421684,344.566454,2641.676150,-9724.431046
17545.424258,2545.963246,1952.543242,-9724.431046
17545.426832,-1550.549045,-3081.955509,-10030.712339
17545.429406,-267.996131,1263.410333,-10145.567824
17545.431980,708.275490,3981.656806,-9934.999435
17545.434554,-248.853550,-1339.980656,-9839.286531
17545.437128,-593.420005,-421.136778,-10068.997501
17545.439702,440.279358,2526.820666,-9973.284597
17545.442276,-516.849682,-803.988394,-9801.001370
17545.444849,-784.845813,-1129.412267,-9896.714274
17545.447423,-382.851616,1301.695494,-10145.567824
17545.449997,382.851616,1512.263883,-10088.140082
17545.452571,344.566454,-535.992262,-9915.856854
17545.455145,248.853550,-535.992262,-9839.286531
17545.457719,76.570323,1780.260014,-9820.143950
17545.460293,-382.851616,880.558717,-9915.856854
17545.462867,-861.416136,-229.710970,-9992.427178
17545.465441,459.421939,1052.841944,-9858.429112
17545.468015,210.568389,-1167.697429,-9915.856854
17545.470589,-133.998066,-976.271621,-9954.142016
17545.473163,-976.271621,2239.681954,-9915.856854
17545.475737,2143.969050,1722.832272,-9915.856854
17545.478311,-918.843878,-2526.820666,-10126.425243
17545.480885,-823.130974,4460.221326,-10107.282662
17545.483459,2431.107762,-267.996131,-9820.143950
17545.486033,-2890.529701,-2852.244539,-10068.997501
17545.488607,-3598.805190,1033.699363,-10183.852986
17545.491181,-38.285162,4977.071008,-9743.573627
17545.493755,-612.562586,-4900.500685,-9590.432981
17545.496330,-267.996131,-1014.556782,-9896.714274
17545.498905,210.568389,4862.215523,-9934.999435
17545.501480,-2335.394858,-2105.683888,-10068.997501
17545.504055,-2545.963246,-612.562586,-10068.997501
17545.506630,2258.824534,3273.381317,-9781.858789
17545.509204,-784.845813,-421.136778,-9820.143950
17545.511779,-2297.109696,-1493.121302,-9915.856854
17545.514354,-1588.834206,1148.554848,-9781.858789
17545.516929,-516.849682,-1129.412267,-9820.143950
17545.519504,-210.568389,-1550.549045,-9954.142016
17545.522078,-38.285162,765.703232,-10011.569758
17545.524653,-708.275490,1607.976787,-9954.142016
17545.527228,-976.271621,38.285162,-9858.429112
17545.529803,-1359.123237,-727.418070,-9743.573627
17545.532378,-1301.695494,689.132909,-9954.142016
17545.534953,-2029.113565,267.996131,-10164.710405
17545.537527,-401.994197,-1550.549045,-9934.999435
17545.540102,-57.427742,-95.712904,-9858.429112
17545.542677,-382.851616,1397.408398,-9877.571693
17545.545252,-1225.125171,19.142581,-10030.712339
17545.547827,-1550.549045,-57.427742,-9992.427178
17545.550401,-1186.840010,1320.838075,-10049.854920
17545.552976,-1033.699363,1895.115499,-9877.571693
17545.555551,574.277424,-535.992262,-9915.856854
17545.558126,-3541.377448,-1971.685822,-9915.856854
17545.560701,689.132909,918.843878,-9877.571693
17545.563275,-497.707101,-899.701298,-9915.856854
17545.565850,-535.992262,2067.398726,-10030.712339
17545.568425,3101.098090,1071.984525,-10107.282662
17545.571000,-708.275490,-3407.379382,-10049.854920
17545.573575,880.558717,4670.789715,-10183.852986
17545.576150,-1129.412267,2871.387120,-9839.286531
17545.578724,-2718.246474,-4039.084549,-9915.856854
17545.581299,823.130974,3426.521963,-9724.431046
17545.583874,2794.816797,3809.373579,-9705.288466
17545.586449,-497.707101,-1875.972918,-9877.571693
17545.589024,-1282.552914,-574.277424,-10011.569758
17545.591598,727.418070,4823.930362,-9915.856854
17545.594173,114.855485,95.712904,-9858.429112
17545.596749,-937.986459,-2603.390989,-10068.997501
17545.599325,153.140646,2986.242605,-9762.716208
17545.601901,-95.712904,1244.267752,-9628.718142
17545.604477,-1052.841944,-2488.535504,-9839.286531
17545.607052,-593.420005,574.277424,-10183.852986
17545.609628,459.421939,2450.250342,-10202.995566
17545.612204,421.136778,-650.847747,-9915.856854
17545.614780,631.705166,57.427742,-9820.143950
17545.617356,-708.275490,1148.554848,-9877.571693
17545.619932,-19.142581,1416.550979,-9934.999435
17545.622507,-248.853550,478.564520,-9801.001370
17545.625083,-363.709035,-1646.261949,-9954.142016
17545.627659,421.136778,-440.279358,-10011.569758
17545.630235,-689.132909,1627.119368,-9915.856854
17545.632811,1627.119368,1607.976787,-9801.001370
17545.635387,-1052.841944,-1646.261949,-10030.712339
17545.637962,-650.847747,4460.221326,-10145.567824
17545.640538,2009.970984,-421.136778,-9896.714274
17545.643114,-4134.797453,-2373.680019,-9954.142016
17545.645690,-382.851616,5704.489078,-9724.431046
17545.648266,-440.279358,3617.947771,-9647.860723
17545.650842,-593.420005,-4919.643266,-9571.290400
17545.653417,-133.998066,-172.283227,-9915.856854
17545.655993,76.570323,4058.227130,-9992.427178
17545.658569,-2488.535504,-1416.550979,-10011.569758
17545.661145,-2105.683888,229.710970,-10011.569758
17545.663721,1301.695494,2316.252277,-9858.429112
17545.666297,-574.277424,-401.994197,-9762.716208
17545.668872,-1646.261949,-1990.828403,-9877.571693
17545.671448,-1895.115499,421.136778,-9934.999435
17545.674024,-1244.267752,229.710970,-9915.856854
17545.676600,-1205.982590,95.712904,-9877.571693
17545.679176,-133.998066,1110.269686,-9973.284597
17545.681752,-133.998066,1397.408398,-9954.142016
17545.684329,-650.847747,574.277424,-9705.288466
17545.686905,-1856.830338,-287.138712,-9820.143950
17545.689481,-2488.535504,76.570323,-9992.427178
17545.692057,-995.414202,-650.847747,-10030.712339
17545.694633,267.996131,-899.701298,-9877.571693
17545.697209,-133.998066,899.701298,-9762.716208
17545.699786,-1014.556782,497.707101,-9915.856854
17545.702362,-1607.976787,842.273555,-10011.569758
17545.704938,-2335.394858,1339.980656,-9915.856854
17545.707514,401.994197,421.136778,-9801.001370
17545.710090,-650.847747,-2794.816797,-9839.286531
17545.712667,-1416.550979,-842.273555,-9820.143950
17545.715243,-133.998066,-229.710970,-10049.854920
17545.717819,-3751.945837,555.134843,-10011.569758
17545.720395,1780.260014,2603.390989,-9781.858789
17545.722971,1435.693560,-2335.394858,-9915.856854
17545.725547,727.418070,2086.541307,-9858.429112
17545.728124,803.988394,5474.778109,-9934.999435
17545.730700,-1646.261949,-3196.810994,-9934.999435
17545.733276,-1627.119368,-325.423874,-10068.997501
17545.735852,1301.695494,2794.816797,-9992.427178
17545.738428,172.283227,-4345.365842,-9762.716208
17545.741005,-287.138712,746.560651,-9954.142016
17545.743581,210.568389,3866.801322,-10107.282662
17545.746157,153.140646,2258.824534,-9858.429112
17545.748733,-708.275490,-1397.408398,-9954.142016
17545.751309,497.707101,2297.109696,-10126.425243
17545.753885,593.420005,1914.258080,-10011.569758
17545.756462,-784.845813,-1780.260014,-9762.716208
17545.759038,-401.994197,612.562586,-9705.288466
17545.761614,-114.855485,1665.404530,-10030.712339
17545.764190,-19.142581,-382.851616,-10088.140082
17545.766766,516.849682,267.996131,-10088.140082
17545.769343,1071.984525,1818.545176,-9705.288466
17545.771919,-440.279358,727.418070,-10011.569758
17545.774495,-229.710970,-133.998066,-9954.142016
17545.777071,-1588.834206,708.275490,-10088.140082
17545.779647,-497.707101,1722.832272,-10126.425243
17545.782222,57.427742,-593.420005,-9839.286531
17545.784798,421.136778,-2048.256146,-9858.429112
17545.787373,229.710970,3349.951640,-9801.001370
17545.789948,1205.982590,-95.712904,-9877.571693
17545.792523,-2775.674216,-612.562586,-9992.427178
17545.795098,669.990328,4517.649069,-9801.001370
17545.797674,-1320.838075,-4153.940034,-9973.284597
17545.800249,-3273.381317,-2545.963246,-10088.140082
17545.802824,210.568389,5761.916821,-9686.145885
17545.805399,-1110.269686,-2239.681954,-9399.007173
17545.807974,-957.129040,-2986.242605,-10107.282662
17545.810549,-344.566454,1588.834206,-9915.856854
17545.813125,612.562586,2986.242605,-9762.716208
17545.815700,-2220.539373,-1493.121302,-10011.569758
17545.818275,-1033.699363,-937.986459,-9992.427178
17545.820850,229.710970,2316.252277,-9820.143950
17545.823425,-1205.982590,-1741.974853,-9686.145885
17545.826001,-2852.244539,-1129.412267,-9934.999435
17545.828576,-899.701298,2201.396792,-9858.429112
17545.831151,-38.285162,-382.851616,-9973.284597
17545.833726,-76.570323,-1339.980656,-10126.425243
17545.836301,-823.130974,1186.840010,-9915.856854
17545.838876,-1033.699363,1780.260014,-9801.001370
17545.841452,-2584.248408,172.283227,-9762.716208
17545.844027,-1359.123237,-995.414202,-10049.854920
17545.846602,555.134843,-401.994197,-9915.856854
17545.849177,-95.712904,-306.281293,-9915.856854
17545.851752,-1225.125171,229.710970,-10030.712339
17545.854328,-1454.836141,1205.982590,-9992.427178
17545.856903,-2067.398726,1129.412267,-9915.856854
17545.859478,-248.853550,1646.261949,-9762.716208
17545.862053,153.140646,-1990.828403,-9954.142016
17545.864628,-689.132909,38.285162,-9858.429112
17545.867203,-1129.412267,-210.568389,-9973.284597
17545.869779,-3388.236802,1397.408398,-9877.571693
17545.872354,2431.107762,497.707101,-9839.286531
17545.874929,1971.685822,-1856.830338,-9954.142016
17545.877504,133.998066,325.423874,-10011.569758
17545.880079,1014.556782,6106.483275,-10011.569758
17545.882655,-1282.552914,-2105.683888,-9934.999435
17545.885229,-2067.398726,-1895.115499,-10088.140082
17545.887804,1512.263883,3809.373579,-9858.429112
17545.890379,842.273555,-3541.377448,-9705.288466
17545.892954,-957.129040,-1148.554848,-10011.569758
17545.895528,995.414202,4326.223261,-9973.284597
17545.898103,-363.709035,306.281293,-9954.142016
17545.900678,-803.988394,-497.707101,-10049.854920
17545.903253,325.423874,3579.662610,-10088.140082
17545.905827,631.705166,3158.525832,-9973.284597
17545.908402,95.712904,-1531.406464,-9705.288466
17545.910977,-344.566454,-1550.549045,-9762.716208
17545.913552,-76.570323,2201.396792,-10088.140082
17545.916126,306.281293,1225.125171,-10145.567824
17545.918701,-478.564520,-650.847747,-10011.569758
17545.921276,650.847747,1493.121302,-9820.143950
17545.923851,918.843878,1588.834206,-9915.856854
17545.926425,-765.703232,267.996131,-9743.573627
17545.929000,-1014.556782,-516.849682,-9915.856854
17545.931575,248.853550,-478.564520,-9992.427178
17545.934150,-612.562586,861.416136,-10030.712339
17545.936724,2124.826469,1186.840010,-9934.999435
17545.939299,95.712904,-2009.970984,-10011.569758
17545.941874,-1971.685822,2603.390989,-9839.286531
17545.944449,2775.674216,3273.381317,-9858.429112
17545.947023,-3771.088418,-4268.795518,-10241.280728
17545.949598,-2794.816797,2105.683888,-10241.280728
17545.952173,-287.138712,1684.547110,-9801.001370
17545.954748,-114.855485,-5589.633594,-9552.147819
17545.957322,-478.564520,765.703232,-9915.856854
17545.959897,-937.986459,4134.797453,-9973.284597
17545.962472,-2488.535504,-1244.267752,-9934.999435
17545.965047,-1110.269686,306.281293,-10049.854920
17545.967621,1263.410333,2277.967115,-9801.001370
17545.970196,899.701298,1225.125171,-9781.858789
17545.972771,-2258.824534,-2603.390989,-9839.286531
17545.975346,-2660.818731,1052.841944,-9954.142016
17545.977921,-1263.410333,1225.125171,-9915.856854
17545.980495,38.285162,-1512.263883,-9839.286531
17545.983070,-191.425808,0.000000,-10088.140082
17545.985645,-497.707101,1914.258080,-10049.854920
17545.988219,-1416.550979,401.994197,-9896.714274
17545.990792,-1933.400661,-1301.695494,-9839.286531
17545.993366,-746.560651,306.281293,-9801.001370
17545.995939,-133.998066,133.998066,-10049.854920
17545.998513,-1359.123237,-976.271621,-10011.569758
17546.001086,-229.710970,287.138712,-9858.429112
17546.003660,-1225.125171,631.705166,-9934.999435
17546.006233,-344.566454,-842.273555,-10107.282662
17546.008807,-1378.265818,1186.840010,-10030.712339
17546.011380,612.562586,957.129040,-9992.427178
17546.013954,-2737.389054,-1473.978722,-9858.429112
17546.016528,497.707101,-765.703232,-9934.999435
17546.019101,-708.275490,-823.130974,-9934.999435
17546.021675,-363.709035,2967.100024,-9915.856854
17546.024248,2277.967115,325.423874,-10145.567824
17546.026822,-593.420005,-3254.238736,-10030.712339
17546.029395,1378.265818,5187.639397,-9992.427178
17546.031969,-823.130974,2143.969050,-9743.573627
17546.034542,-2986.242605,-3369.094221,-9915.856854
17546.037116,-612.562586,38.285162,-9992.427178
17546.039690,2967.100024,2105.683888,-9628.718142
17546.042263,76.570323,-1856.830338,-9877.571693
17546.044837,-1205.982590,-153.140646,-10049.854920
17546.047410,306.281293,3809.373579,-9915.856854
17546.049984,382.851616,440.279358,-9820.143950
17546.052557,-191.425808,-1225.125171,-10164.710405
17546.055131,95.712904,1971.685822,-9992.427178
17546.057704,-0.000000,248.853550,-9609.575562
17546.060278,-382.851616,-1225.125171,-9858.429112
17546.062851,172.283227,1416.550979,-10030.712339
17546.065425,95.712904,1148.554848,-10183.852986
17546.067999,210.568389,114.855485,-9877.571693
17546.070572,765.703232,535.992262,-9762.716208
17546.073146,-57.427742,2545.963246,-9801.001370
17546.075719,-363.709035,-401.994197,-9858.429112
17546.078293,-478.564520,-1454.836141,-10011.569758
17546.080866,-861.416136,918.843878,-10011.569758
17546.083440,2354.537438,1646.261949,-10011.569758
17546.086013,-708.275490,-2718.246474,-10049.854920
17546.088587,-555.134843,3885.943902,-9915.856854
17546.091160,1741.974853,842.273555,-9820.143950
17546.093732,-4919.643266,-976.271621,-9915.856854
17546.096305,-593.420005,5053.641331,-9915.856854
17546.098878,-1014.556782,-3962.514226,-9877.571693
17546.101451,172.283227,-5302.494882,-9571.290400
17546.104024,-516.849682,306.281293,-9915.856854
17546.106596,-1052.841944,4077.369710,-10030.712339
17546.109169,-2679.961312,-1091.127106,-9992.427178
17546.111742,-1378.265818,-114.855485,-10011.569758
17546.114315,1033.699363,2316.252277,-10011.569758
17546.116887,-172.283227,-1052.841944,-9858.429112
17546.119460,-1665.404530,-1512.263883,-9820.143950
17546.122033,-1205.982590,1263.410333,-9839.286531
17546.124606,-1799.402595,-229.710970,-10011.569758
17546.127178,-803.988394,0.000000,-9858.429112
17546.129751,-229.710970,784.845813,-9839.286531
17546.132324,-937.986459,-19.142581,-10030.712339
17546.134897,-880.558717,306.281293,-9934.999435
17546.137469,-957.129040,-421.136778,-9781.858789
17546.140042,-1167.697429,-114.855485,-10011.569758
17546.142615,-1301.695494,459.421939,-10164.710405
17546.145188,-708.275490,-535.992262,-9973.284597
17546.147761,-344.566454,535.992262,-9667.003304
17546.150333,-2143.969050,1052.841944,-9896.714274
17546.152906,-38.285162,612.562586,-9973.284597
17546.155479,-1454.836141,-2124.826469,-9915.856854
17546.158052,-133.998066,1454.836141,-9877.571693
17546.160624,-1531.406464,650.847747,-9973.284597
17546.163197,-1952.543242,1225.125171,-9743.573627
17546.165770,2048.256146,880.558717,-9609.575562
17546.168343,-0.000000,-2182.254211,-9896.714274
17546.170915,708.275490,4096.512291,-9992.427178
17546.173488,574.277424,3790.230998,-9992.427178
17546.176061,-861.416136,-3675.375514,-9762.716208
17546.178634,-325.423874,1531.406464,-10126.425243
17546.181207,593.420005,1761.117434,-10260.423309
17546.183779,-669.990328,-3043.670347,-9896.714274
17546.186352,574.277424,1569.691626,-9762.716208
17546.188925,746.560651,2622.533570,-9839.286531
17546.191498,-803.988394,-1052.841944,-9934.999435
17546.194069,-727.418070,918.843878,-9992.427178
17546.196640,172.283227,1550.549045,-9992.427178
17546.199211,95.712904,1071.984525,-10030.712339
17546.201783,57.427742,-1933.400661,-9781.858789
17546.204354,-38.285162,267.996131,-9781.858789
17546.206925,248.853550,2124.826469,-9801.001370
17546.209497,-631.705166,95.712904,-10164.710405
17546.212068,-459.421939,-248.853550,-10068.997501
17546.214639,1856.830338,1895.115499,-9781.858789
17546.217210,114.855485,1493.121302,-9877.571693
17546.219782,-1167.697429,-172.283227,-9934.999435
17546.222353,-133.998066,-516.849682,-9992.427178
17546.224924,-650.847747,287.138712,-9934.999435
17546.227496,2067.398726,1569.691626,-10107.282662
17546.230067,516.849682,-1761.117434,-10068.997501
17546.232638,-1799.402595,1148.554848,-9743.573627
17546.235209,2450.250342,3101.098090,-9781.858789
17546.237781,-3598.805190,-2775.674216,-10202.995566
17546.240352,-3139.383251,1952.543242,-10317.851051
17546.242923,-287.138712,689.132909,-9915.856854
17546.245495,478.564520,-4996.213589,-9667.003304
17546.248066,-344.566454,784.845813,-9934.999435
17546.250637,-1512.263883,3445.664544,-9954.142016
17546.253208,-2545.963246,-669.990328,-9820.143950
17546.255780,-1320.838075,114.855485,-10107.282662
17546.258351,727.418070,1799.402595,-9896.714274
17546.260922,631.705166,1301.695494,-9667.003304
17546.263494,-1282.552914,-1990.828403,-9781.858789
17546.266065,-2201.396792,-459.421939,-10126.425243
17546.268636,-1339.980656,1186.840010,-10145.567824
17546.271207,-899.701298,421.136778,-9896.714274
17546.273779,-669.990328,248.853550,-9839.286531
17546.276350,-344.566454,-267.996131,-9954.142016
17546.278921,-708.275490,516.849682,-9896.714274
17546.281493,-1033.699363,267.996131,-9915.856854
17546.284064,-1627.119368,-784.845813,-10011.569758
17546.286635,-2124.826469,153.140646,-10164.710405
17546.289206,-114.855485,842.273555,-9896.714274
17546.291778,-784.845813,-918.843878,-9647.860723
17546.294349,440.279358,-1665.404530,-9896.714274
17546.296919,-1684.547110,-382.851616,-10088.140082
17546.299488,-95.712904,2469.392923,-9915.856854
17546.302058,-3292.523898,-765.703232,-9896.714274
17546.304627,-114.855485,669.990328,-9762.716208
17546.307197,2277.967115,-1531.406464,-9801.001370
17546.309766,-1761.117434,153.140646,-9877.571693
17546.312336,2067.398726,2641.676150,-10202.995566
17546.314906,-1052.841944,-3024.527766,-9915.856854
17546.317475,957.129040,1818.545176,-10068.997501
17546.320045,-57.427742,5149.354235,-9781.858789
17546.322614,-2392.822600,-2450.250342,-9877.571693
17546.325184,-899.701298,-1952.543242,-9954.142016
17546.327753,1761.117434,2124.826469,-9762.716208
17546.330323,593.420005,459.421939,-9973.284597
17546.332892,-1205.982590,-976.271621,-10030.712339
17546.335462,-631.705166,2526.820666,-10126.425243
17546.338032,612.562586,1799.402595,-9762.716208
17546.340601,421.136778,-861.416136,-9915.856854
17546.343171,899.701298,-114.855485,-9992.427178
17546.345740,191.425808,1244.267752,-9858.429112
17546.348310,-344.566454,306.281293,-9954.142016
17546.350879,-937.986459,421.136778,-10107.282662
17546.353449,325.423874,937.986459,-9877.571693
17546.356018,2048.256146,765.703232,-9858.429112
17546.358588,-344.566454,-38.285162,-10049.854920
17546.361158,-1588.834206,2335.394858,-10164.710405
17546.363727,-306.281293,861.416136,-9858.429112
17546.366297,19.142581,-2813.959378,-9858.429112
17546.368866,765.703232,1607.976787,-9896.714274
17546.371436,1339.980656,-382.851616,-9973.284597
17546.374005,-2411.965181,-459.421939,-9801.001370
17546.376575,1359.123237,3847.658741,-9801.001370
17546.379144,-2258.824534,-2737.389054,-10068.997501
17546.381714,-3407.379382,-535.992262,-10241.280728
17546.384284,-57.427742,3158.525832,-9896.714274
17546.386853,306.281293,-3617.947771,-9552.147819
17546.389423,-1205.982590,-1761.117434,-10011.569758
17546.391992,-1186.840010,1933.400661,-9992.427178
17546.394562,-612.562586,2718.246474,-9896.714274
17546.397131,-2048.256146,-708.275490,-10068.997501
17546.399700,-669.990328,-1110.269686,-9934.999435
17546.402269,708.275490,2239.681954,-9839.286531
17546.404837,-976.271621,-1627.119368,-9647.860723
17546.407406,-2660.818731,-401.994197,-10126.425243
17546.409974,-535.992262,1665.404530,-10011.569758
17546.412543,-1607.976787,-861.416136,-9915.856854
17546.415111,-363.709035,746.560651,-9973.284597
17546.417680,210.568389,363.709035,-9877.571693
17546.420248,-899.701298,-937.986459,-9954.142016
17546.422817,-2105.683888,-172.283227,-9820.143950
17546.425386,-1875.972918,1359.123237,-9954.142016
17546.427954,-803.988394,-555.134843,-10049.854920
17546.430523,-612.562586,-1301.695494,-9801.001370
17546.433091,-76.570323,287.138712,-10030.712339
17546.435660,-765.703232,1780.260014,-9839.286531
17546.438228,-574.277424,191.425808,-10049.854920
17546.440797,-2507.678085,650.847747,-9915.856854
17546.443365,918.843878,-1186.840010,-10107.282662
17546.445934,-2124.826469,-1014.556782,-10011.569758
17546.448503,1684.547110,4307.080680,-9686.145885
17546.451071,1454.836141,-2316.252277,-9896.714274
17546.453640,210.568389,-1359.123237,-10183.852986
17546.456208,995.414202,4307.080680,-10183.852986
17546.458777,19.142581,5264.209720,-9762.716208
17546.461345,-2603.390989,-4460.221326,-9762.716208
17546.463914,1014.556782,880.558717,-9896.714274
17546.466482,2584.248408,1397.408398,-9705.288466
17546.469051,-1148.554848,-2124.826469,-10126.425243
17546.471620,-1378.265818,382.851616,-10164.710405
17546.474188,306.281293,3790.230998,-10049.854920
17546.476757,401.994197,478.564520,-9686.145885
17546.479325,-306.281293,-478.564520,-10068.997501
17546.481894,287.138712,1703.689691,-9915.856854
17546.484462,-0.000000,-401.994197,-9839.286531
17546.487031,-287.138712,-229.710970,-9915.856854
17546.489599,-631.705166,344.566454,-10088.140082
17546.492168,497.707101,1263.410333,-10088.140082
17546.494737,1531.406464,1167.697429,-9781.858789
17546.497305,-57.427742,-593.420005,-9877.571693
17546.499874,-1052.841944,1110.269686,-10049.854920
17546.502441,-957.129040,2086.541307,-9877.571693
17546.505008,248.853550,-1167.697429,-9781.858789
17546.507575,19.142581,153.140646,-9839.286531
17546.510142,2297.109696,976.271621,-9992.427178
17546.512710,-2354.537438,-765.703232,-9934.999435
17546.515277,-1225.125171,3369.094221,-9839.286531
17546.517844,-957.129040,-1799.402595,-9858.429112
17546.520411,-2297.109696,-5072.783912,-9743.573627
17546.522978,746.560651,976.271621,-10164.710405
17546.525545,-1454.836141,2641.676150,-9743.573627
17546.528113,-1627.119368,-3388.236802,-10030.712339
17546.530680,-1110.269686,478.564520,-9915.856854
17546.533247,-114.855485,3215.953574,-9896.714274
17546.535814,-1780.260014,382.851616,-9992.427178
17546.538381,-1244.267752,-2354.537438,-9992.427178
17546.540948,210.568389,1665.404530,-9858.429112
17546.543516,-555.134843,-382.851616,-9647.860723
17546.546083,-2201.396792,-1033.699363,-9973.284597
17546.548650,-918.843878,842.273555,-9973.284597
17546.551217,-1033.699363,344.566454,-9973.284597
17546.553784,38.285162,746.560651,-9973.284597
17546.556352,-784.845813,-306.281293,-9839.286531
17546.558919,-1339.980656,-631.705166,-9973.284597
17546.561486,-1971.685822,1071.984525,-9801.001370
17546.564053,-880.558717,-401.994197,-10049.854920
17546.566620,-918.843878,-842.273555,-9973.284597
17546.569187,-1473.978722,267.996131,-9858.429112
17546.571755,38.285162,2699.103893,-9820.143950
17546.574322,-765.703232,-1569.691626,-9647.860723
17546.576889,-1091.127106,612.562586,-9973.284597
17546.579456,-1339.980656,899.701298,-10126.425243
17546.582023,-2373.680019,1588.834206,-9934.999435
17546.584590,2009.970984,1646.261949,-9724.431046
17546.587158,382.851616,-2947.957443,-9877.571693
17546.589725,153.140646,2756.531635,-9973.284597
17546.592292,306.281293,5551.348432,-9934.999435
17546.594859,-995.414202,-3139.383251,-10049.854920
17546.597426,114.855485,-153.140646,-10068.997501
17546.599993,1129.412267,2641.676150,-10049.854920
17546.602561,-631.705166,-2220.539373,-9839.286531
17546.605126,-19.142581,325.423874,-9877.571693
17546.607692,555.134843,2411.965181,-9858.429112
17546.610257,-478.564520,38.285162,-10126.425243
17546.612823,-593.420005,-57.427742,-9915.856854
17546.615388,-248.853550,-421.136778,-10011.569758
17546.617954,76.570323,1761.117434,-9934.999435
17546.620519,440.279358,-401.994197,-9896.714274
17546.623085,-133.998066,-555.134843,-9915.856854
17546.625651,-19.142581,1569.691626,-10088.140082
17546.628216,535.992262,1416.550979,-10011.569758
17546.630782,-0.000000,497.707101,-9762.716208
17546.633347,306.281293,535.992262,-9762.716208
17546.635913,38.285162,114.855485,-9973.284597
17546.638478,-1301.695494,1263.410333,-9839.286531
17546.641044,899.701298,727.418070,-9896.714274
17546.643609,-899.701298,-172.283227,-9801.001370
17546.646175,2182.254211,1569.691626,-9915.856854
17546.648741,861.416136,-880.558717,-9915.856854
17546.651306,-4441.078746,1339.980656,-9705.288466
17546.653872,344.566454,4843.072942,-9858.429112
17546.656437,-1818.545176,-4843.072942,-9686.145885
17546.659003,478.564520,-2737.389054,-10222.138147
17546.661568,-1033.699363,4230.510357,-9992.427178
17546.664134,-1780.260014,-1493.121302,-9877.571693
17546.666699,-1665.404530,-1493.121302,-9858.429112
17546.669265,191.425808,3273.381317,-9743.573627
17546.671831,-957.129040,1646.261949,-9801.001370
17546.674396,-1780.260014,-3426.521963,-10011.569758
17546.676962,-478.564520,708.275490,-9896.714274
17546.679527,-153.140646,2392.822600,-9839.286531
17546.682093,-689.132909,535.992262,-9877.571693
17546.684658,-2048.256146,-2182.254211,-10049.854920
17546.687224,-1033.699363,1837.687757,-9915.856854
17546.689789,306.281293,1588.834206,-9801.001370
17546.692355,-1416.550979,-1971.685822,-9934.999435
17546.694920,-2086.541307,-382.851616,-9915.856854
17546.697486,-937.986459,1378.265818,-9992.427178
17546.700052,-918.843878,-823.130974,-9915.856854
17546.702617,-1952.543242,-210.568389,-9973.284597
17546.705183,1052.841944,-172.283227,-9801.001370
17546.707719,-1148.554848,-1359.123237,-9877.571693
17546.710256,-153.140646,2048.256146,-9877.571693
17546.712792,-2526.820666,1416.550979,-10068.997501
17546.715329,-1033.699363,1933.400661,-9820.143950
17546.717865,2986.242605,-3656.232933,-9762.716208
17546.720402,-2029.113565,-899.701298,-10030.712339
17546.722938,1952.543242,5895.914886,-9801.001370
17546.725475,-765.703232,-2794.816797,-9705.288466
17546.728011,114.855485,-1416.550979,-9973.284597
17546.730548,612.562586,7714.460062,-9858.429112
17546.733084,-1914.258080,-1225.125171,-9915.856854
17546.735621,-957.129040,-2756.531635,-9762.716208
17546.738157,2775.674216,2679.961312,-9724.431046
17546.740694,631.705166,114.855485,-9954.142016
17546.743230,-1071.984525,-1550.549045,-10068.997501
17546.745767,-1091.127106,114.855485,-10126.425243
17546.748303,612.562586,3407.379382,-9934.999435
17546.750840,172.283227,114.855485,-9877.571693
17546.753376,-76.570323,-1722.832272,-9858.429112
17546.755913,267.996131,1588.834206,-9839.286531
17546.758449,344.566454,1244.267752,-10068.997501
17546.760986,-114.855485,-325.423874,-10164.710405
17546.763523,-363.709035,1397.408398,-9801.001370
17546.766059,76.570323,1971.685822,-9743.573627
17546.768596,440.279358,-689.132909,-9915.856854
17546.771132,-1320.838075,459.421939,-9973.284597
17546.773669,1895.115499,1780.260014,-9839.286531
17546.776205,-344.566454,-765.703232,-10049.854920
17546.778742,-1110.269686,1665.404530,-9992.427178
17546.781278,1531.406464,267.996131,-9934.999435
17546.783815,-4192.225195,191.425808,-9858.429112
17546.786351,-306.281293,4460.221326,-9934.999435
17546.788888,-1397.408398,-3254.238736,-9858.429112
17546.791424,497.707101,-4173.082614,-10145.567824
17546.793961,-899.701298,3675.375514,-10088.140082
17546.796497,-1799.402595,229.710970,-9915.856854
17546.799034,-1665.404530,-2182.254211,-9743.573627
17546.801570,-248.853550,2469.392923,-9801.001370
17546.804107,-497.707101,2373.680019,-10011.569758
17546.806643,-631.705166,-3215.953574,-9954.142016
17546.809183,-1799.402595,-2947.957443,-9858.429112
17546.811724,-497.707101,1665.404530,-9934.999435
17546.814264,-363.709035,1301.695494,-9896.714274
17546.816804,-1531.406464,-1722.832272,-10107.282662
17546.819344,-1091.127106,1225.125171,-9896.714274
17546.821885,-76.570323,1512.263883,-9858.429112
17546.824425,-1512.263883,-1186.840010,-9820.143950
17546.826965,-2105.683888,-880.558717,-10049.854920
17546.829505,-497.707101,899.701298,-9877.571693
17546.832045,-842.273555,-765.703232,-10030.712339
17546.834586,-1473.978722,-1052.841944,-10068.997501
17546.837126,-516.849682,3177.668413,-9705.288466
17546.839666,401.994197,2182.254211,-9992.427178
17546.842206,-3196.810994,-918.843878,-9973.284597
17546.844747,631.705166,-1454.836141,-10126.425243
17546.847287,-344.566454,-440.279358,-9915.856854
17546.849827,708.275490,3349.951640,-9801.001370
17546.852367,1378.265818,-1473.978722,-10068.997501
17546.854907,-880.558717,-1722.832272,-10126.425243
17546.857448,1205.982590,6336.194245,-10030.712339
17546.859988,-631.705166,650.847747,-9934.999435
17546.862528,-918.843878,-3656.232933,-10049.854920
17546.865068,1263.410333,2603.390989,-9877.571693
17546.867609,861.416136,76.570323,-9743.573627
17546.870149,-516.849682,-669.990328,-10068.997501
17546.872689,-1359.123237,-459.421939,-10107.282662
17546.875229,-57.427742,2699.103893,-10030.712339
17546.877769,1397.408398,1033.699363,-9858.429112
17546.880310,-650.847747,-1799.402595,-10088.140082
17546.882850,-363.709035,1761.117434,-9992.427178
17546.885390,401.994197,1569.691626,-9743.573627
17546.887930,401.994197,-1550.549045,-10068.997501
17546.890470,765.703232,765.703232,-9992.427178
17546.893011,-191.425808,3101.098090,-10011.569758
17546.895551,-1129.412267,229.710970,-9877.571693
17546.898091,497.707101,-1014.556782,-9839.286531
17546.900631,-38.285162,1722.832272,-9954.142016
17546.903172,2201.396792,1741.974853,-10049.854920
17546.905712,-1052.841944,-1263.410333,-10126.425243
17546.908252,-1435.693560,1971.685822,-9877.571693
17546.910795,1761.117434,440.279358,-9877.571693
17546.913338,-4192.225195,-344.566454,-9820.143950
17546.915880,-478.564520,4345.365842,-9896.714274
17546.918423,-1282.552914,-2967.100024,-9762.716208
17546.920966,689.132909,-4000.799387,-10164.710405
17546.923509,-1091.127106,3790.230998,-10030.712339
17546.926052,-1799.402595,-76.570323,-9934.999435
17546.928595,-1646.261949,-2029.113565,-9820.143950
17546.931137,38.285162,2603.390989,-9781.858789
17546.933680,363.709035,2009.970984,-9839.286531
17546.936223,-784.845813,-669.990328,-9801.001370
17546.938766,-2048.256146,-3043.670347,-9934.999435
17546.941309,-880.558717,1550.549045,-9858.429112
17546.943851,-555.134843,574.277424,-9934.999435
17546.946394,-1378.265818,-2756.531635,-10068.997501
17546.948937,-1129.412267,1569.691626,-9915.856854
17546.951480,-401.994197,2660.818731,-9858.429112
17546.954023,-2316.252277,-1435.693560,-9954.142016
17546.956566,-1531.406464,-1684.547110,-10049.854920
17546.959108,-153.140646,1550.549045,-9877.571693
17546.961651,-2086.541307,-210.568389,-10030.712339
17546.964194,-191.425808,-1435.693560,-9973.284597
17546.966737,-1148.554848,-899.701298,-9743.573627
17546.969280,191.425808,1703.689691,-9801.001370
17546.971822,-2411.965181,440.279358,-9992.427178
17546.974365,-1378.265818,1665.404530,-9839.286531
17546.976908,2928.814862,-2507.678085,-9724.431046
17546.979451,-2029.113565,-1052.841944,-10126.425243
17546.981994,1971.685822,4862.215523,-9915.856854
17546.984536,-918.843878,-2354.537438,-9667.003304
17546.987079,516.849682,-1129.412267,-9934.999435
17546.989622,306.281293,7216.752962,-9801.001370
17546.992165,-1875.972918,-937.986459,-9954.142016
17546.994708,-880.558717,-2967.100024,-9801.001370
17546.997251,708.275490,2431.107762,-9762.716208
17546.999793,1397.408398,3177.668413,-9839.286531
17547.002336,-861.416136,-1129.412267,-10049.854920
17547.004879,-1263.410333,-325.423874,-9992.427178
17547.007422,574.277424,2928.814862,-9915.856854
17547.009965,535.992262,440.279358,-9896.714274
17547.012511,-133.998066,-1856.830338,-9896.714274
17547.015056,344.566454,1569.691626,-9877.571693
17547.017602,1378.265818,1397.408398,-10011.569758
17547.020147,-1320.838075,861.416136,-10011.569758
17547.022693,-708.275490,1014.556782,-9992.427178
17547.025239,382.851616,172.283227,-9762.716208
17547.027784,-382.851616,650.847747,-9973.284597
17547.030330,1799.402595,1416.550979,-10164.710405
17547.032875,-1397.408398,19.142581,-9915.856854
17547.035421,-0.000000,1339.980656,-9877.571693
17547.037967,-133.998066,-1148.554848,-9973.284597
17547.040512,-3828.516160,3120.240670,-9954.142016
17547.043058,689.132909,2277.967115,-9801.001370
17547.045603,-2105.683888,-5532.205851,-9686.145885
17547.048149,765.703232,612.562586,-10068.997501
17547.050695,-1818.545176,3751.945837,-9839.286531
17547.053240,-2335.394858,-4019.941968,-10107.282662
17547.055786,-1244.267752,-133.998066,-10011.569758
17547.058331,1320.838075,3905.086483,-9858.429112
17547.060877,-1473.978722,-880.558717,-9915.856854
17547.063423,-1914.258080,-3713.660675,-10068.997501
17547.065968,-1531.406464,-440.279358,-9992.427178
17547.068514,248.853550,2852.244539,-9858.429112
17547.071059,-1148.554848,-899.701298,-9934.999435
17547.073605,-1531.406464,-1359.123237,-9934.999435
17547.076151,-344.566454,2335.394858,-9915.856854
17547.078696,-574.277424,650.847747,-9839.286531
17547.081242,-2794.816797,-1320.838075,-9858.429112
17547.083787,-784.845813,-267.996131,-9934.999435
17547.086333,-287.138712,593.420005,-9839.286531
17547.088879,-2029.113565,-784.845813,-10011.569758
17547.091424,-593.420005,1397.408398,-9781.858789
17547.093970,-440.279358,1091.127106,-9781.858789
17547.096515,-1052.841944,440.279358,-9877.571693
17547.099061,-401.994197,-1071.984525,-10241.280728
17547.101607,-2258.824534,1990.828403,-9992.427178
17547.104152,2890.529701,650.847747,-9686.145885
17547.106698,-976.271621,-3541.377448,-9877.571693
17547.109243,727.418070,4460.221326,-9934.999435
17547.111789,325.423874,4287.938099,-9762.716208
17547.114337,-650.847747,-4230.510357,-9973.284597
17547.116885,325.423874,2335.394858,-10202.995566
17547.119432,287.138712,3617.947771,-10164.710405
17547.121980,-1052.841944,-3349.951640,-9801.001370
17547.124528,478.564520,248.853550,-9705.288466
17547.127076,306.281293,2967.100024,-9915.856854
17547.129623,880.558717,2029.113565,-9896.714274
17547.132171,-918.843878,-2029.113565,-10030.712339
17547.134719,-153.140646,1473.978722,-10126.425243
17547.137267,765.703232,2967.100024,-9896.714274
17547.139814,363.709035,-2392.822600,-9896.714274
17547.142362,440.279358,-191.425808,-9801.001370
17547.144910,1263.410333,3215.953574,-9954.142016
17547.147458,-1033.699363,-248.853550,-10088.140082
17547.150005,-1569.691626,-631.705166,-10088.140082
17547.152553,727.418070,3120.240670,-9705.288466
17547.155101,1435.693560,-784.845813,-9781.858789
17547.157649,-765.703232,-746.560651,-9781.858789
17547.160196,1033.699363,287.138712,-9954.142016
17547.162744,-2163.111630,1091.127106,-9839.286531
17547.165292,-1320.838075,2450.250342,-9973.284597
17547.167840,-1148.554848,-3943.371645,-10068.997501
17547.170388,-2143.969050,-1722.832272,-9877.571693
17547.172935,516.849682,5111.069074,-9667.003304
17547.175483,-918.843878,-1780.260014,-9533.005238
17547.178031,-1741.974853,-3617.947771,-10202.995566
17547.180579,-957.129040,4096.512291,-10202.995566
17547.183126,-478.564520,1014.556782,-9896.714274
17547.185674,-2335.394858,-2392.822600,-10107.282662
17547.188222,114.855485,1837.687757,-9781.858789
17547.190770,344.566454,3637.090352,-9820.143950
17547.193317,-689.132909,-976.271621,-9762.716208
17547.195865,-2258.824534,-1780.260014,-10049.854920
17547.198413,-937.986459,2622.533570,-9992.427178
17547.200961,-325.423874,746.560651,-9839.286531
17547.203508,-1493.121302,-2239.681954,-9992.427178
17547.206056,-1780.260014,765.703232,-9877.571693
17547.208604,-344.566454,1244.267752,-9954.142016
17547.211152,-1435.693560,-2163.111630,-9954.142016
17547.213699,-1722.832272,-650.847747,-10107.282662
17547.216249,38.285162,3407.379382,-9762.716208
17547.218798,-861.416136,-1263.410333,-9456.434915
17547.221347,-1837.687757,76.570323,-9820.143950
17547.223897,153.140646,-727.418070,-10279.565890
17547.226446,-1780.260014,2411.965181,-9896.714274
17547.228995,2335.394858,842.273555,-9686.145885
17547.231544,-650.847747,-3656.232933,-9954.142016
17547.234094,689.132909,4134.797453,-9877.571693
17547.236643,516.849682,4900.500685,-9820.143950
17547.239192,-1033.699363,-4249.652938,-9820.143950
17547.241741,555.134843,1282.552914,-10164.710405
17547.244291,478.564520,4211.367776,-10107.282662
17547.246840,-899.701298,-3311.666478,-9858.429112
17547.249389,-133.998066,-535.992262,-9743.573627
17547.251938,1646.261949,3924.229064,-9801.001370
17547.254488,1052.841944,3024.527766,-10088.140082
17547.257037,-746.560651,-2392.822600,-10011.569758
17547.259586,-803.988394,287.138712,-10011.569758
17547.262136,631.705166,4192.225195,-9954.142016
17547.264685,593.420005,-1703.689691,-9934.999435
17547.267234,880.558717,-1359.123237,-9858.429112
17547.269783,325.423874,3215.953574,-10011.569758
17547.272333,-1359.123237,1799.402595,-9973.284597
17547.274882,-363.709035,-1550.549045,-9934.999435
17547.277431,57.427742,765.703232,-9820.143950
17547.279980,2909.672282,2316.252277,-9973.284597
17547.282530,-1588.834206,-153.140646,-9992.427178
17547.285079,-1569.691626,1225.125171,-9877.571693
17547.287628,516.849682,-440.279358,-9877.571693
17547.290178,-3981.656806,880.558717,-9915.856854
17547.292727,325.423874,3637.090352,-9934.999435
17547.295276,-1646.261949,-4536.791650,-9686.145885
17547.297825,459.421939,-2603.390989,-10049.854920
17547.300375,-995.414202,4938.785846,-9934.999435
17547.302924,-2124.826469,-1646.261949,-9915.856854
17547.305473,-2143.969050,-2679.961312,-9915.856854
17547.308022,1091.127106,4230.510357,-9877.571693
17547.310572,-516.849682,727.418070,-9877.571693
17547.313121,-2660.818731,-4307.080680,-10068.997501
17547.315670,-1167.697429,2029.113565,-9896.714274
17547.318220,-133.998066,4594.219392,-9762.716208
17547.320770,-574.277424,-631.705166,-9896.714274
17547.323321,-1703.689691,-3943.371645,-10126.425243
17547.325871,-650.847747,3081.955509,-10011.569758
17547.328421,-574.277424,2048.256146,-9590.432981
17547.330971,-2373.680019,-2833.101958,-9858.429112
17547.333521,-842.273555,421.136778,-9839.286531
17547.336071,-1416.550979,1780.260014,-9992.427178
17547.338621,-440.279358,-1014.556782,-9877.571693
17547.341171,-1473.978722,-1320.838075,-9762.716208
17547.343721,248.853550,1703.689691,-9858.429112
17547.346271,-2986.242605,38.285162,-9915.856854
17547.348821,-765.703232,1454.836141,-9877.571693
17547.351372,2967.100024,-650.847747,-9801.001370
17547.353922,-1799.402595,-2699.103893,-9973.284597
17547.356472,1703.689691,4919.643266,-9877.571693
17547.359022,-0.000000,1435.693560,-9686.145885
17547.361572,-440.279358,-3560.520029,-9858.429112
17547.364122,229.710970,4785.645200,-9954.142016
17547.366672,-478.564520,2086.541307,-10126.425243
17547.369222,-1263.410333,-4230.510357,-9934.999435
17547.371772,1263.410333,1454.836141,-9743.573627
17547.374322,1607.976787,2928.814862,-9839.286531
17547.376873,-1225.125171,-2526.820666,-10088.140082
17547.379423,-1014.556782,210.568389,-10183.852986
17547.381973,-497.707101,2565.105827,-10068.997501
17547.384523,918.843878,3751.945837,-9781.858789
17547.387073,267.996131,-3043.670347,-9934.999435
17547.389623,842.273555,95.712904,-9839.286531
17547.392173,612.562586,2392.822600,-9992.427178
17547.394723,-2086.541307,-689.132909,-10107.282662
17547.397273,-248.853550,421.136778,-9858.429112
17547.399823,650.847747,1205.982590,-9915.856854
17547.402374,2947.957443,-248.853550,-9973.284597
17547.404924,-1320.838075,248.853550,-10164.710405
17547.407474,-133.998066,3369.094221,-9934.999435
17547.410024,-191.425808,-2239.681954,-9896.714274
17547.412574,-4345.365842,1454.836141,-10030.712339
17547.415124,-1071.984525,4249.652938,-10107.282662
17547.417674,-650.847747,-976.271621,-9571.290400
17547.420201,76.570323,-6240.481341,-9954.142016
17547.422727,-842.273555,4421.936165,-10030.712339
17547.425254,-1493.121302,2718.246474,-9839.286531
17547.427781,-2871.387120,-4326.223261,-9934.999435
17547.430307,-0.000000,2450.250342,-9820.143950
17547.432834,995.414202,2852.244539,-9743.573627
17547.435361,-2507.678085,-4862.215523,-10068.997501
17547.437887,-2220.539373,-344.566454,-10030.712339
17547.440414,57.427742,5302.494882,-9686.145885
17547.442941,-842.273555,-2297.109696,-9992.427178
17547.445467,-1531.406464,-4498.506488,-9992.427178
17547.447994,-1167.697429,689.132909,-9877.571693
17547.450520,229.710970,3579.662610,-9801.001370
17547.453047,-1780.260014,-2411.965181,-9934.999435
17547.455574,-2450.250342,-1665.404530,-10107.282662
17547.458100,631.705166,1167.697429,-10011.569758
17547.460627,-765.703232,-325.423874,-9954.142016
17547.463154,-1052.841944,229.710970,-9915.856854
17547.465680,-1703.689691,2258.824534,-9896.714274
17547.468207,669.990328,-1990.828403,-10126.425243
17547.470734,-2316.252277,38.285162,-10011.569758
17547.473260,2220.539373,4594.219392,-9762.716208
17547.475787,727.418070,-3273.381317,-9839.286531
17547.478314,-1167.697429,-4957.928427,-10222.138147
17547.480840,880.558717,5570.491013,-10260.423309
17547.483367,-325.423874,3675.375514,-9915.856854
17547.485894,-1033.699363,-5187.639397,-9954.142016
17547.488420,172.283227,1971.685822,-10011.569758
17547.490947,2163.111630,2411.965181,-9839.286531
17547.493473,-1531.406464,-3847.658741,-10049.854920
17547.496000,-153.140646,1033.699363,-10183.852986
17547.498527,1607.976787,5532.205851,-9973.284597
17547.501053,-248.853550,-1550.549045,-9954.142016
17547.503580,-765.703232,-1167.697429,-10126.425243
17547.506107,1454.836141,3943.371645,-9896.714274
17547.508633,1990.828403,2603.390989,-9724.431046
17547.511160,-957.129040,-2431.107762,-10183.852986
17547.513687,-1990.828403,880.558717,-10183.852986
17547.516213,1569.691626,3790.230998,-9858.429112
17547.518740,-153.140646,-1378.265818,-9820.143950
17547.521272,2086.541307,-306.281293,-10164.710405
17547.523803,-516.849682,2928.814862,-10068.997501
17547.526335,957.129040,1052.841944,-9877.571693
17547.528867,-1665.404530,-2660.818731,-9973.284597
17547.531398,-3330.809059,4268.795518,-10011.569758
17547.533930,612.562586,1493.121302,-9877.571693
17547.536462,-2488.535504,-7235.895542,-9781.858789
17547.538993,248.853550,2545.963246,-9973.284597
17547.541525,-210.568389,6317.051664,-9877.571693
17547.544057,-1646.261949,-1244.267752,-9973.284597
17547.546588,-3043.670347,-3924.229064,-9992.427178
17547.549120,1282.552914,4823.930362,-9839.286531
17547.551652,-19.142581,899.701298,-9858.429112
17547.554183,-2986.242605,-5091.926493,-10088.140082
17547.556715,-937.986459,2143.969050,-9934.999435
17547.559247,325.423874,2373.680019,-9667.003304
17547.561778,-1933.400661,-3215.953574,-9992.427178
17547.564310,-1780.260014,823.130974,-10126.425243
17547.566842,-95.712904,2431.107762,-9877.571693
17547.569373,-880.558717,-1646.261949,-9781.858789
17547.571905,-1818.545176,-1627.119368,-9992.427178
17547.574437,-2411.965181,765.703232,-9915.856854
17547.576968,210.568389,-76.570323,-10011.569758
17547.579500,-1129.412267,-2277.967115,-9954.142016
17547.582032,-19.142581,1569.691626,-10049.854920
17547.584563,-2890.529701,1225.125171,-9858.429112
17547.587095,401.994197,-1397.408398,-9858.429112
17547.589627,191.425808,-1856.830338,-10011.569758
17547.592158,421.136778,5206.781978,-9954.142016
17547.594690,1952.543242,-421.136778,-10088.140082
17547.597222,-1110.269686,-4153.940034,-10183.852986
17547.599753,1359.123237,6029.912952,-10088.140082
17547.602285,-267.996131,2852.244539,-9762.716208
17547.604817,-1091.127106,-2679.961312,-9801.001370
17547.607348,-1818.545176,-2565.105827,-10011.569758
17547.609880,2833.101958,3598.805190,-9724.431046
17547.612412,497.707101,-1033.699363,-9934.999435
17547.614943,-1722.832272,-2029.113565,-10068.997501
17547.617475,689.132909,5053.641331,-9915.856854
17547.620007,995.414202,1014.556782,-9839.286531
17547.622542,-880.558717,-2871.387120,-9954.142016
17547.625078,1282.552914,2565.105827,-9954.142016
17547.627614,535.992262,2086.541307,-9686.145885
17547.630150,-1244.267752,-1301.695494,-10068.997501
17547.632685,-612.562586,1014.556782,-9992.427178
17547.635221,267.996131,2411.965181,-9762.716208
17547.637757,1129.412267,267.996131,-9762.716208
17547.640293,516.849682,-248.853550,-9896.714274
17547.642829,1129.412267,-382.851616,-10068.997501
17547.645364,-2507.678085,1741.974853,-9801.001370
17547.647900,421.136778,2603.390989,-9954.142016
17547.650436,-2622.533570,-4843.072942,-10126.425243
17547.652972,-2105.683888,210.568389,-10222.138147
17547.655507,-229.710970,3196.810994,-9686.145885
17547.658043,-516.849682,-4575.076811,-9647.860723
17547.660579,-1397.408398,-57.427742,-9934.999435
17547.663115,-861.416136,5895.914886,-10049.854920
17547.665651,497.707101,3139.383251,-9915.856854
17547.668186,-2699.103893,-2756.531635,-10088.140082
17547.670722,-153.140646,727.418070,-9877.571693
17547.673258,-19.142581,1914.258080,-9686.145885
17547.675794,-1933.400661,-4134.797453,-9915.856854
17547.678329,-2163.111630,19.142581,-10107.282662
17547.680865,-248.853550,3579.662610,-10011.569758
17547.683401,-1339.980656,-1378.265818,-10011.569758
17547.685937,-976.271621,-1186.840010,-9877.571693
17547.688473,114.855485,2086.541307,-9743.573627
17547.691008,-1722.832272,-267.996131,-9915.856854
17547.693544,-1933.400661,-2679.961312,-10183.852986
17547.696080,-1205.982590,1646.261949,-9934.999435
17547.698616,306.281293,1895.115499,-10011.569758
17547.701151,-2297.109696,459.421939,-9954.142016
17547.703687,497.707101,-1990.828403,-10030.712339
17547.706223,-1167.697429,-574.277424,-9877.571693
17547.708759,1186.840010,5915.057467,-9896.714274
17547.711295,1320.838075,-1933.400661,-10126.425243
17547.713830,-593.420005,-2603.390989,-10145.567824
17547.716366,1378.265818,7140.182638,-9839.286531
17547.718902,-555.134843,0.000000,-9801.001370
17547.721438,-957.129040,-4766.502619,-10126.425243
17547.723977,401.994197,4326.223261,-9915.856854
17547.726515,1416.550979,497.707101,-9781.858789
17547.729054,-880.558717,-3388.236802,-9915.856854
17547.731593,-1091.127106,-746.560651,-9992.427178
17547.734132,976.271621,5742.774240,-9934.999435
17547.736671,325.423874,38.285162,-9858.429112
17547.739210,-440.279358,-2373.680019,-10068.997501
17547.741749,1933.400661,2545.963246,-10030.712339
17547.744288,-95.712904,861.416136,-9973.284597
17547.746827,-1665.404530,-133.998066,-10088.140082
17547.749366,172.283227,1339.980656,-9877.571693
17547.751905,344.566454,1378.265818,-9724.431046
17547.754444,421.136778,-267.996131,-9934.999435
17547.756982,861.416136,727.418070,-9877.571693
17547.759521,1263.410333,-1512.263883,-9992.427178
17547.762060,-2258.824534,-976.271621,-9839.286531
17547.764599,-1627.119368,4192.225195,-9954.142016
17547.767138,-1129.412267,-3503.092286,-9915.856854
17547.769677,-2450.250342,-4192.225195,-9896.714274
17547.772216,229.710970,5608.776174,-9571.290400
17547.774755,-708.275490,-650.847747,-9494.720077
17547.777294,-2163.111630,-4804.787781,-10011.569758
17547.779833,-1033.699363,5819.344563,-10068.997501
17547.782372,-19.142581,2373.680019,-9915.856854
17547.784910,-2813.959378,-4153.940034,-10107.282662
17547.787449,497.707101,1722.832272,-9858.429112
17547.789988,287.138712,2009.970984,-9724.431046
17547.792527,-2124.826469,-4670.789715,-9705.288466
17547.795066,-2813.959378,-3158.525832,-9934.999435
17547.797605,-1627.119368,2450.250342,-10145.567824
17547.800144,-133.998066,1148.554848,-9954.142016
17547.802683,-823.130974,-2163.111630,-9896.714274
17547.805222,-650.847747,612.562586,-9705.288466
17547.807761,-2335.394858,1818.545176,-9992.427178
17547.810300,-1014.556782,-689.132909,-9896.714274
17547.812839,-1301.695494,-1971.685822,-9858.429112
17547.815377,382.851616,861.416136,-9934.999435
17547.817916,-2986.242605,689.132909,-9973.284597
17547.820455,-459.421939,899.701298,-9820.143950
17547.822994,1761.117434,-2947.957443,-9705.288466
17547.825513,-2067.398726,-1971.685822,-10049.854920
17547.828032,2297.109696,5723.631659,-10011.569758
17547.830550,-95.712904,-918.843878,-9667.003304
17547.833069,-363.709035,-3426.521963,-9934.999435
17547.835588,95.712904,6585.047795,-9915.856854
17547.838107,-325.423874,1282.552914,-10011.569758
17547.840625,-2545.963246,-4728.217458,-9801.001370
17547.843144,2029.113565,3081.955509,-9820.143950
17547.845663,1741.974853,1569.691626,-9877.571693
17547.848181,-1895.115499,-2909.672282,-9992.427178
17547.850700,-95.712904,2335.394858,-10126.425243
17547.853219,1014.556782,2967.100024,-9915.856854
17547.855738,421.136778,-1378.265818,-9934.999435
17547.858256,-899.701298,-516.849682,-9743.573627
17547.860775,-267.996131,2354.537438,-9858.429112
17547.863294,-38.285162,-210.568389,-9973.284597
17547.865812,-172.283227,-574.277424,-9896.714274
17547.868331,229.710970,976.271621,-9992.427178
17547.870850,1741.974853,574.277424,-9877.571693
17547.873369,-114.855485,-1454.836141,-9954.142016
17547.875887,-1665.404530,4230.510357,-9801.001370
17547.878406,1741.974853,229.710970,-9743.573627
17547.880925,-4230.510357,-3694.518094,-10145.567824
17547.883444,-1627.119368,4689.932296,-10107.282662
17547.885962,-1014.556782,-1416.550979,-9705.288466
17547.888481,-612.562586,-4900.500685,-9590.432981
17547.891000,-1473.978722,-995.414202,-9934.999435
17547.893518,-382.851616,7465.606512,-9992.427178
17547.896037,-1684.547110,-2143.969050,-9934.999435
17547.898556,-2316.252277,-3101.098090,-10049.854920
17547.901075,1416.550979,4134.797453,-9801.001370
17547.903593,-459.421939,-1205.982590,-9915.856854
17547.906112,-2794.816797,-4000.799387,-9934.999435
17547.908631,-880.558717,4900.500685,-9762.716208
17547.911150,-689.132909,1454.836141,-9934.999435
17547.913668,-2679.961312,-4326.223261,-10222.138147
17547.916187,-267.996131,1722.832272,-9801.001370
17547.918706,746.560651,1895.115499,-9705.288466
17547.921224,-2258.824534,-937.986459,-9973.284597
17547.923743,-2163.111630,-363.709035,-10049.854920
17547.926268,-516.849682,1512.263883,-9762.716208
17547.928793,210.568389,-746.560651,-9781.858789
17547.931318,-2967.100024,-1416.550979,-10049.854920
17547.933843,-382.851616,4345.365842,-9858.429112
17547.936367,2679.961312,-3751.945837,-9705.288466
17547.938892,-2354.537438,-842.273555,-10107.282662
17547.941417,2986.242605,6814.758765,-10011.569758
17547.943942,-421.136778,-3675.375514,-9667.003304
17547.946467,-133.998066,-2143.969050,-10126.425243
17547.948992,153.140646,8690.731683,-9647.860723
17547.951517,899.701298,4709.074877,-10030.712339
17547.954041,-2756.531635,-5436.492947,-9954.142016
17547.956566,918.843878,1205.982590,-9781.858789
17547.959091,2565.105827,3522.234867,-9877.571693
17547.961616,-1416.550979,-3388.236802,-10088.140082
17547.964141,-1244.267752,1205.982590,-10107.282662
17547.966666,1282.552914,4326.223261,-10049.854920
17547.969191,727.418070,-1378.265818,-9839.286531
17547.971716,-593.420005,-535.992262,-9743.573627
17547.974240,-248.853550,2890.529701,-9820.143950
17547.976765,210.568389,-593.420005,-10049.854920
17547.979290,-784.845813,-401.994197,-9973.284597
17547.981815,976.271621,1914.258080,-9934.999435
17547.984340,-325.423874,3062.812928,-9801.001370
17547.986865,1703.689691,-57.427742,-9934.999435
17547.989390,-2182.254211,-612.562586,-9934.999435
17547.991914,-1186.840010,4077.369710,-9801.001370
17547.994439,-937.986459,-4326.223261,-9934.999435
17547.996964,-3292.523898,-3943.371645,-9992.427178
17547.999489,-57.427742,5915.057467,-9724.431046
17548.002014,-535.992262,-1205.982590,-9494.720077
17548.004539,-1914.258080,-4287.938099,-9934.999435
17548.007064,-497.707101,6470.192310,-10183.852986
17548.009588,-459.421939,1397.408398,-9858.429112
17548.012113,-3062.812928,-3981.656806,-10088.140082
17548.014638,-1607.976787,2277.967115,-9915.856854
17548.017163,784.845813,3349.951640,-9781.858789
17548.019688,-1052.841944,-1110.269686,-9781.858789
17548.022213,-3330.809059,-1990.828403,-9915.856854
17548.024738,-765.703232,2679.961312,-9915.856854
17548.027268,95.712904,-248.853550,-10202.995566
17548.029798,-784.845813,-1933.400661,-10030.712339
17548.032327,-1799.402595,1741.974853,-9781.858789
17548.034857,-114.855485,-497.707101,-9954.142016
17548.037387,-1914.258080,-1569.691626,-9954.142016
17548.039917,-574.277424,1703.689691,-9992.427178
17548.042447,-1531.406464,1167.697429,-9992.427178
17548.044976,516.849682,-3579.662610,-10068.997501
17548.047506,-38.285162,-2833.101958,-9896.714274
17548.050036,497.707101,5608.776174,-9877.571693
17548.052566,2316.252277,803.988394,-10049.854920
17548.055095,-1205.982590,-4747.360038,-10241.280728
17548.057625,1033.699363,5876.772306,-10202.995566
17548.060155,95.712904,3120.240670,-9801.001370
17548.062685,-1033.699363,-6029.912952,-9877.571693
17548.065215,114.855485,2431.107762,-9686.145885
17548.067744,1952.543242,2718.246474,-9762.716208
17548.070274,-3043.670347,-2833.101958,-10145.567824
17548.072804,612.562586,1416.550979,-10011.569758
17548.075334,2392.822600,2584.248408,-9896.714274
17548.077864,-440.279358,-1703.689691,-10126.425243
17548.080393,-57.427742,382.851616,-9915.856854
17548.082923,248.853550,1512.263883,-9781.858789
17548.085453,-593.420005,-1263.410333,-9839.286531
17548.087983,287.138712,669.990328,-9992.427178
17548.090513,-210.568389,2297.109696,-9896.714274
17548.093042,612.562586,-1282.552914,-9896.714274
17548.095572,229.710970,1320.838075,-9801.001370
17548.098102,1646.261949,574.277424,-9992.427178
17548.100632,-2335.394858,689.132909,-9896.714274
17548.103162,555.134843,1722.832272,-9839.286531
17548.105691,-2392.822600,-3215.953574,-9992.427178
17548.108221,-2411.965181,-650.847747,-9954.142016
17548.110751,-459.421939,2986.242605,-9801.001370
17548.113281,-555.134843,229.710970,-9609.575562
17548.115811,-1627.119368,-3924.229064,-9839.286531
17548.118340,-1397.408398,4115.654872,-10145.567824
17548.120870,-172.283227,2833.101958,-9858.429112
17548.123400,-2105.683888,-2603.390989,-10068.997501
17548.125930,-555.134843,191.425808,-9896.714274
17548.128464,421.136778,1837.687757,-9801.001370
17548.130999,-1741.974853,-3713.660675,-9762.716208
17548.133533,-2603.390989,-478.564520,-9839.286531
17548.136068,-727.418070,3637.090352,-9858.429112
17548.138602,-918.843878,-1512.263883,-10107.282662
17548.141136,-880.558717,-1550.549045,-10088.140082
17548.143671,-2679.961312,401.994197,-9801.001370
17548.146205,-95.712904,3120.240670,-9686.145885
17548.148740,-1780.260014,-2718.246474,-9705.288466
17548.151274,-382.851616,-1378.265818,-10126.425243
17548.153809,-2641.676150,2967.100024,-10011.569758
17548.156343,287.138712,-497.707101,-9934.999435
17548.158878,497.707101,-4785.645200,-9877.571693
17548.161412,248.853550,5417.350366,-10011.569758
17548.163947,2622.533570,2794.816797,-9954.142016
17548.166481,-1607.976787,-5857.629725,-10126.425243
17548.169016,842.273555,4594.219392,-10222.138147
17548.171550,708.275490,5398.207786,-9877.571693
17548.174085,267.996131,-1071.984525,-9686.145885
17548.176619,-2450.250342,-5149.354235,-9858.429112
17548.179153,2622.533570,3464.807125,-9801.001370
17548.181688,133.998066,1435.693560,-10011.569758
17548.184222,-1952.543242,-2105.683888,-10030.712339
17548.186757,650.847747,3062.812928,-9839.286531
17548.189291,1990.828403,1665.404530,-9877.571693
17548.191826,-555.134843,-937.986459,-10011.569758
17548.194360,-823.130974,1703.689691,-9896.714274
17548.196895,-114.855485,803.988394,-9686.145885
17548.199429,1359.123237,-899.701298,-9954.142016
17548.201964,-401.994197,650.847747,-10126.425243
17548.204498,1339.980656,1397.408398,-10107.282662
17548.207033,-976.271621,478.564520,-10030.712339
17548.209567,-229.710970,2909.672282,-9858.429112
17548.212102,555.134843,-803.988394,-9934.999435
17548.214636,-3732.803256,842.273555,-9705.288466
17548.217170,210.568389,3541.377448,-9781.858789
17548.219705,-2852.244539,-5225.924558,-9724.431046
17548.222239,-918.843878,-2411.965181,-10241.280728
17548.224774,76.570323,4747.360038,-9858.429112
17548.227308,-880.558717,-2928.814862,-9896.714274
17548.229847,-2163.111630,-1359.123237,-10088.140082
17548.232385,555.134843,5359.922624,-9915.856854
17548.234923,-1186.840010,248.853550,-9934.999435
17548.237461,-2354.537438,-3713.660675,-10068.997501
17548.240000,-1818.545176,-210.568389,-9934.999435
17548.242538,593.420005,3235.096155,-9533.005238
17548.245076,-2469.392923,-2163.111630,-9954.142016
17548.247614,-2239.681954,-459.421939,-10049.854920
17548.250152,133.998066,2163.111630,-9954.142016
17548.252691,-1052.841944,-1875.972918,-9934.999435
17548.255229,-803.988394,-1607.976787,-9954.142016
17548.257767,-1033.699363,1761.117434,-9877.571693
17548.260305,-1397.408398,478.564520,-9915.856854
17548.262844,-1684.547110,229.710970,-9973.284597
17548.265382,267.996131,-1301.695494,-10088.140082
17548.267920,-2048.256146,555.134843,-10011.569758
17548.270458,976.271621,4345.365842,-9934.999435
17548.272996,1588.834206,344.566454,-10049.854920
17548.275535,-727.418070,-1856.830338,-10068.997501
17548.278073,842.273555,5953.342629,-9992.427178
17548.280611,-325.423874,1091.127106,-9896.714274
17548.283149,-191.425808,-5034.498750,-10068.997501
17548.285688,612.562586,2431.107762,-9858.429112
17548.288226,708.275490,2163.111630,-9705.288466
17548.290764,-2124.826469,-1722.832272,-9915.856854
17548.293302,325.423874,1263.410333,-9896.714274
17548.295841,1780.260014,2143.969050,-9954.142016
17548.298379,-114.855485,-1416.550979,-10030.712339
17548.300917,-555.134843,1052.841944,-10107.282662
17548.303455,-708.275490,2488.535504,-9762.716208
17548.305993,-0.000000,669.990328,-9724.431046
17548.308532,976.271621,-995.414202,-10011.569758
17548.311073,-172.283227,497.707101,-10107.282662
17548.313614,1856.830338,1703.689691,-10068.997501
17548.316156,-1531.406464,612.562586,-9973.284597
17548.318697,1129.412267,2201.396792,-10030.712339
17548.321238,-287.138712,-1454.836141,-9896.714274
17548.323779,-3369.094221,2488.535504,-9896.714274
17548.326321,-153.140646,1818.545176,-9820.143950
17548.328862,-2890.529701,-5781.059402,-9781.858789
17548.331403,-555.134843,803.988394,-10145.567824
17548.333945,-57.427742,4785.645200,-9858.429112
17548.336486,-746.560651,-803.988394,-9781.858789
17548.339027,-2603.390989,-3062.812928,-10011.569758
17548.341569,57.427742,4460.221326,-9801.001370
17548.344110,-440.279358,2009.970984,-9915.856854
17548.346651,-2277.967115,-4383.651003,-10049.854920
17548.349192,-248.853550,210.568389,-9915.856854
17548.351734,76.570323,2986.242605,-9552.147819
17548.354275,-2813.959378,-2124.826469,-9877.571693
17548.356816,-2507.678085,-631.705166,-10107.282662
17548.359358,325.423874,2450.250342,-10011.569758
17548.361899,-1167.697429,-727.418070,-9915.856854
17548.364440,-669.990328,-2373.680019,-9705.288466
17548.366982,-1512.263883,-1531.406464,-9934.999435
17548.369523,-153.140646,765.703232,-9973.284597
17548.372064,-3139.383251,497.707101,-9915.856854
17548.374606,306.281293,-689.132909,-9992.427178
17548.377147,497.707101,-2641.676150,-9820.143950
17548.379688,612.562586,4823.930362,-9915.856854
17548.382229,2201.396792,957.129040,-10030.712339
17548.384771,-1091.127106,-4211.367776,-10202.995566
17548.387312,918.843878,6010.770371,-10145.567824
17548.389853,-210.568389,3024.527766,-9877.571693
17548.392395,-689.132909,-5972.485210,-10011.569758
17548.394936,746.560651,1359.123237,-9877.571693
17548.397477,1875.972918,3579.662610,-9762.716208
17548.400019,-306.281293,937.986459,-10049.854920
17548.402560,-2009.970984,-1741.974853,-10068.997501
17548.405101,1646.261949,3483.949706,-9896.714274
17548.407642,1397.408398,1282.552914,-10011.569758
17548.410184,-746.560651,-1148.554848,-10088.140082
17548.412727,-593.420005,1684.547110,-9801.001370
17548.415271,440.279358,1435.693560,-9743.573627
17548.417815,401.994197,-153.140646,-9954.142016
17548.420359,95.712904,229.710970,-9973.284597
17548.422902,1741.974853,1071.984525,-9973.284597
17548.425446,-363.709035,-1627.119368,-10126.425243
17548.427990,-1646.261949,2928.814862,-9992.427178
17548.430533,669.990328,3426.521963,-9934.999435
17548.433077,-1990.828403,-4996.213589,-9915.856854
17548.435621,-2986.242605,-382.851616,-10088.140082
17548.438164,-880.558717,4230.510357,-9858.429112
17548.440708,-669.990328,-5130.211654,-9781.858789
17548.443252,-937.986459,-727.418070,-9896.714274
17548.445796,-555.134843,6661.618118,-9934.999435
17548.448339,-1875.972918,-2048.256146,-9973.284597
17548.450883,-2201.396792,-2947.957443,-10030.712339
17548.453427,669.990328,4287.938099,-9801.001370
17548.455970,-574.277424,-1378.265818,-9896.714274
17548.458514,-3101.098090,-4058.227130,-9877.571693
17548.461058,-3005.385186,114.855485,-9877.571693
17548.463602,-133.998066,3943.371645,-9820.143950
17548.466145,-1071.984525,-3024.527766,-9934.999435
17548.468689,-2431.107762,-1627.119368,-10011.569758
17548.471233,689.132909,2029.113565,-9915.856854
17548.473776,-746.560651,-1493.121302,-9934.999435
17548.476320,-2048.256146,-612.562586,-9992.427178
17548.478864,-1359.123237,3924.229064,-9877.571693
17548.481407,-133.998066,-2565.105827,-9954.142016
17548.483951,-2622.533570,153.140646,-9973.284597
17548.486495,3158.525832,4096.512291,-9801.001370
17548.489039,-19.142581,-4134.797453,-9839.286531
17548.491582,803.988394,2373.680019,-9781.858789
17548.494126,593.420005,7293.323285,-9992.427178
17548.496670,-248.853550,1665.404530,-9896.714274
17548.499213,-210.568389,-6259.623922,-10222.138147
17548.501757,803.988394,2909.672282,-9992.427178
17548.504301,1320.838075,3215.953574,-9647.860723
17548.506844,-3292.523898,-3847.658741,-9973.284597
17548.509388,153.140646,1225.125171,-9934.999435
17548.511932,2488.535504,3751.945837,-9896.714274
17548.514478,-957.129040,-2297.109696,-10088.140082
17548.517024,-344.566454,842.273555,-9973.284597
17548.519570,1091.127106,3292.523898,-9667.003304
17548.522116,421.136778,-1722.832272,-9801.001370
17548.524663,-497.707101,-555.134843,-9992.427178
17548.527209,172.283227,1665.404530,-10088.140082
17548.529755,1148.554848,1244.267752,-9724.431046
17548.532301,325.423874,-2890.529701,-9858.429112
17548.534847,-1856.830338,2756.531635,-9992.427178
17548.537393,2201.396792,2029.113565,-9801.001370
17548.539939,-3598.805190,-4632.504554,-10088.140082
17548.542486,-2545.963246,3560.520029,-10145.567824
17548.545032,-1110.269686,1454.836141,-9858.429112
17548.547578,-708.275490,-7427.321350,-9934.999435
17548.550124,-497.707101,2928.814862,-9858.429112
17548.552670,-306.281293,4479.363907,-9705.288466
17548.555216,-1320.838075,-4651.647134,-9820.143950
17548.557762,-2679.961312,-4402.793584,-10011.569758
17548.560309,823.130974,3483.949706,-9743.573627
17548.562855,401.994197,267.996131,-9781.858789
17548.565401,-3043.670347,-4919.643266,-9896.714274
17548.567947,-1646.261949,2756.531635,-9762.716208
17548.570493,-516.849682,2890.529701,-9934.999435
17548.573039,-1990.828403,-4268.795518,-10145.567824
17548.575585,-2469.392923,210.568389,-9992.427178
17548.578132,1512.263883,2048.256146,-9762.716208
17548.580678,-995.414202,-3043.670347,-9896.714274
17548.583224,-1646.261949,-57.427742,-10088.140082
17548.585770,-1933.400661,4268.795518,-9915.856854
17548.588316,689.132909,1550.549045,-9934.999435
17548.590862,-363.709035,-5072.783912,-9801.001370
17548.593408,727.418070,4613.361973,-10030.712339
17548.595955,2967.100024,1914.258080,-10011.569758
17548.598501,-1339.980656,-4862.215523,-10068.997501
17548.601047,229.710970,6049.055533,-10164.710405
17548.603593,114.855485,4096.512291,-9915.856854
17548.606139,-267.996131,-6661.618118,-10011.569758
17548.608685,612.562586,1052.841944,-9954.142016
17548.611231,1665.404530,4421.936165,-9667.003304
17548.613778,-3388.236802,-2890.529701,-9877.571693
17548.616325,-382.851616,-1091.127106,-9877.571693
17548.618873,2833.101958,2775.674216,-9820.143950
17548.621421,1761.117434,612.562586,-9915.856854
17548.623968,-880.558717,-880.558717,-10068.997501
17548.626516,-880.558717,2335.394858,-9781.858789
17548.629064,1569.691626,1071.984525,-9705.288466
17548.631612,-57.427742,-459.421939,-10030.712339
17548.634159,842.273555,1627.119368,-10107.282662
17548.636707,-1167.697429,2258.824534,-9896.714274
17548.639255,1531.406464,-95.712904,-9915.856854
17548.641803,-1320.838075,-1339.980656,-9915.856854
17548.644350,-1473.978722,3847.658741,-9877.571693
17548.646898,-1282.552914,-2775.674216,-9762.716208
17548.649446,-3235.096155,-3541.377448,-9896.714274
17548.651993,-631.705166,-191.425808,-10183.852986
17548.654541,708.275490,3560.520029,-9762.716208
17548.657089,-1473.978722,-5072.783912,-9992.427178
17548.659637,-2450.250342,1225.125171,-10202.995566
17548.662184,650.847747,5857.629725,-9820.143950
17548.664732,-2201.396792,-2067.398726,-9934.999435
17548.667280,-1761.117434,-2737.389054,-9896.714274
17548.669828,1071.984525,3043.670347,-9858.429112
17548.672375,-689.132909,-344.566454,-9762.716208
17548.674923,-3330.809059,-2411.965181,-9954.142016
17548.677471,-1129.412267,2775.674216,-9915.856854
17548.680019,-727.418070,574.277424,-9973.284597
17548.682566,-1454.836141,-3311.666478,-9934.999435
17548.685114,-1148.554848,-1493.121302,-9915.856854
17548.687662,-899.701298,2775.674216,-9992.427178
17548.690209,-1875.972918,1320.838075,-9801.001370
17548.692757,-1301.695494,-3196.810994,-10011.569758
17548.695305,-1493.121302,3330.809059,-9839.286531
17548.697853,3637.090352,2009.970984,-9839.286531
17548.700400,-1493.121302,-5149.354235,-10011.569758
17548.702948,1646.261949,4766.502619,-9934.999435
17548.705496,918.843878,5436.492947,-9571.290400
17548.708044,-1875.972918,-4881.358104,-10030.712339
17548.710591,-325.423874,2392.822600,-10317.851051
17548.713139,1588.834206,4862.215523,-9896.714274
17548.715687,937.986459,-4115.654872,-9552.147819
17548.718215,-2316.252277,-3828.516160,-9954.142016
17548.720743,-133.998066,2718.246474,-9896.714274
17548.723272,1378.265818,3790.230998,-9992.427178
17548.725800,-421.136778,-3637.090352,-10030.712339
17548.728329,306.281293,325.423874,-9992.427178
17548.730857,1359.123237,4996.213589,-9647.860723
17548.733385,631.705166,-976.271621,-9724.431046
17548.735914,-1856.830338,-861.416136,-10030.712339
17548.738442,918.843878,4115.654872,-10049.854920
17548.740970,363.709035,1569.691626,-9801.001370
17548.743499,880.558717,-3732.803256,-9877.571693
17548.746027,-1435.693560,1569.691626,-10088.140082
17548.748556,-1990.828403,5608.776174,-9839.286531
17548.751084,-861.416136,-1129.412267,-9667.003304
17548.753612,-3924.229064,-5972.485210,-9934.999435
17548.756141,95.712904,4536.791650,-9877.571693
17548.758669,593.420005,1244.267752,-9628.718142
17548.761197,-2048.256146,-5972.485210,-9992.427178
17548.763726,-1550.549045,4977.071008,-10049.854920
17548.766254,-210.568389,4249.652938,-9724.431046
17548.768783,-2545.963246,-4766.502619,-10088.140082
17548.771311,57.427742,-191.425808,-9954.142016
17548.773839,1071.984525,2852.244539,-9877.571693
17548.776368,-1971.685822,-2756.531635,-9915.856854
17548.778896,-3790.230998,-2986.242605,-10049.854920
17548.781424,-1914.258080,2526.820666,-9992.427178
17548.783953,-842.273555,1225.125171,-9896.714274
17548.786481,-95.712904,-3771.088418,-9954.142016
17548.789010,-669.990328,114.855485,-9781.858789
17548.791538,-727.418070,2507.678085,-10011.569758
17548.794066,-2507.678085,229.710970,-9839.286531
17548.796595,-1110.269686,-1856.830338,-10030.712339
17548.799123,-1531.406464,3215.953574,-9973.284597
17548.801651,3235.096155,1339.980656,-9858.429112
17548.804180,-669.990328,-4613.361973,-10011.569758
17548.806708,1435.693560,4536.791650,-9762.716208
17548.809236,689.132909,5532.205851,-9628.718142
17548.811765,-1014.556782,-937.986459,-10068.997501
17548.814293,-325.423874,-4479.363907,-10317.851051
17548.816822,1722.832272,4728.217458,-9858.429112
17548.819354,1320.838075,1148.554848,-9494.720077
17548.821887,-2297.109696,-3675.375514,-9954.142016
17548.824420,-19.142581,2086.541307,-9973.284597
17548.826953,1129.412267,4173.082614,-9973.284597
17548.829486,-440.279358,-2699.103893,-10068.997501
17548.832019,287.138712,-727.418070,-9973.284597
17548.834552,1761.117434,4421.936165,-9762.716208
17548.837084,555.134843,114.855485,-9820.143950
17548.839617,-1837.687757,-1684.547110,-10145.567824
17548.842150,746.560651,-459.421939,-10049.854920
17548.844683,382.851616,1952.543242,-10107.282662
17548.847216,95.712904,1952.543242,-9934.999435
17548.849749,267.996131,-3158.525832,-9934.999435
17548.852282,-4058.227130,2411.965181,-9667.003304
17548.854815,-210.568389,4977.071008,-9762.716208
17548.857347,-3503.092286,-5398.207786,-9973.284597
17548.859880,-708.275490,-2584.248408,-10336.993632
17548.862413,1684.547110,5091.926493,-9762.716208
17548.864946,-957.129040,-4192.225195,-9934.999435
17548.867479,-3426.521963,-1129.412267,-10011.569758
17548.870012,-229.710970,6278.766502,-9877.571693
17548.872545,-1627.119368,-19.142581,-9781.858789
17548.875077,-1301.695494,-3866.801322,-10030.712339
17548.877610,-1225.125171,-172.283227,-9934.999435
17548.880143,325.423874,3598.805190,-9609.575562
17548.882676,-2297.109696,-2584.248408,-10068.997501
17548.885209,-3330.809059,-1856.830338,-10260.423309
17548.887742,-1071.984525,2871.387120,-9992.427178
17548.890275,1091.127106,287.138712,-9686.145885
17548.892807,-957.129040,-2297.109696,-9686.145885
17548.895340,-287.138712,497.707101,-9992.427178
17548.897873,-4230.510357,899.701298,-9915.856854
17548.900406,-708.275490,842.273555,-9858.429112
17548.902939,1531.406464,-3024.527766,-9992.427178
17548.905472,-1014.556782,-2335.394858,-10088.140082
17548.908005,3369.094221,5111.069074,-9839.286531
17548.910538,-306.281293,-440.279358,-9590.432981
17548.913070,-1761.117434,-1531.406464,-10068.997501
17548.915603,-210.568389,6355.336826,-9992.427178
17548.918136,784.845813,-746.560651,-9820.143950
17548.920652,267.996131,-4632.504554,-9973.284597
17548.923169,880.558717,2622.533570,-9743.573627
17548.925685,-497.707101,3177.668413,-9896.714274
17548.928201,-1990.828403,-2833.101958,-10068.997501
17548.930718,133.998066,306.281293,-10164.710405
17548.933234,2335.394858,3732.803256,-9915.856854
17548.935750,421.136778,-1129.412267,-9934.999435
17548.938266,-114.855485,-1627.119368,-9858.429112
17548.940783,-1148.554848,1033.699363,-9992.427178
17548.943299,1359.123237,3005.385186,-10049.854920
17548.945815,-1110.269686,650.847747,-9915.856854
17548.948332,1512.263883,-229.710970,-9973.284597
17548.950848,-382.851616,-1033.699363,-9896.714274
17548.953364,-1856.830338,3503.092286,-9858.429112
17548.955880,-1856.830338,-1646.261949,-9667.003304
17548.958397,-3656.232933,-4096.512291,-9858.429112
17548.960913,-19.142581,3905.086483,-9934.999435
17548.963429,382.851616,-287.138712,-9705.288466
17548.965946,-1473.978722,-4575.076811,-9896.714274
17548.968462,-2928.814862,306.281293,-10049.854920
17548.970978,-306.281293,6144.768437,-9877.571693
17548.973494,-2182.254211,-784.845813,-9915.856854
17548.976011,-880.558717,-4747.360038,-9992.427178
17548.978527,650.847747,2316.252277,-9934.999435
17548.981043,-344.566454,2277.967115,-9609.575562
17548.983560,-3388.236802,-3273.381317,-10011.569758
17548.986076,-2488.535504,363.709035,-10011.569758
17548.988592,-1052.841944,2545.963246,-9934.999435
17548.991108,-0.000000,-937.986459,-9915.856854
17548.993625,-497.707101,-2565.105827,-9781.858789
17548.996141,516.849682,784.845813,-10011.569758
17548.998657,-4039.084549,1339.980656,-9839.286531
17549.001174,-1397.408398,3043.670347,-9686.145885
17549.003690,2258.824534,-3522.234867,-9915.856854
17549.006206,-440.279358,-1129.412267,-10241.280728
17549.008722,4058.227130,4632.504554,-9877.571693
17549.011239,-727.418070,-2603.390989,-9590.432981
17549.013755,-1320.838075,210.568389,-9973.284597
17549.016271,-382.851616,7580.461997,-9934.999435
17549.018788,421.136778,-2756.531635,-9973.284597
17549.021310,421.136778,-4115.654872,-9915.856854
17549.023833,1473.978722,3809.373579,-9667.003304
17549.026356,-784.845813,2067.398726,-9820.143950
17549.028879,-2392.822600,-3541.377448,-10049.854920
17549.031402,-1091.127106,-2584.248408,-10394.421374
17549.033924,2335.394858,4192.225195,-9992.427178
17549.036447,1684.547110,957.129040,-9743.573627
17549.038970,-478.564520,-2239.681954,-9820.143950
17549.041493,-440.279358,2239.681954,-9877.571693
17549.044016,1646.261949,2297.109696,-10126.425243
17549.046539,-1856.830338,-650.847747,-10183.852986
17549.049062,1244.267752,1837.687757,-9915.856854
17549.051585,746.560651,-1569.691626,-9762.716208
17549.054107,-3081.955509,1895.115499,-9705.288466
17549.056630,-1205.982590,1952.543242,-9533.005238
17549.059153,-3694.518094,-4345.365842,-9801.001370
17549.061676,-440.279358,861.416136,-10222.138147
17549.064199,1416.550979,3771.088418,-9973.284597
17549.066722,-344.566454,-2067.398726,-9724.431046
17549.069245,-3177.668413,-2048.256146,-9896.714274
17549.071768,-1244.267752,4766.502619,-9877.571693
17549.074291,-1282.552914,1952.543242,-9839.286531
17549.076813,-650.847747,-4862.215523,-10068.997501
17549.079336,593.420005,-229.710970,-9934.999435
17549.081859,-114.855485,3330.809059,-9628.718142
17549.084382,-3254.238736,-1339.980656,-9839.286531
17549.086905,-3522.234867,-1397.408398,-9954.142016
17549.089428,19.142581,1205.982590,-10030.712339
17549.091951,401.994197,38.285162,-9896.714274
17549.094474,-1110.269686,-899.701298,-9992.427178
17549.096996,-2603.390989,1359.123237,-9896.714274
17549.099519,-1512.263883,-612.562586,-9896.714274
17549.102042,-2316.252277,1493.121302,-9915.856854
17549.104565,3005.385186,2277.967115,-9954.142016
17549.107088,267.996131,-4115.654872,-10011.569758
17549.109611,1837.687757,3503.092286,-9781.858789
17549.112134,861.416136,5493.920690,-9475.577496
17549.114657,-2450.250342,-3771.088418,-9973.284597
17549.117180,-650.847747,1588.834206,-10509.276859
17549.119702,1493.121302,4326.223261,-10088.140082
17549.122231,918.843878,-3503.092286,-9762.716208
17549.124759,229.710970,-1780.260014,-9801.001370
17549.127288,-650.847747,1741.974853,-9839.286531
17549.129816,248.853550,4594.219392,-9934.999435
17549.132345,-421.136778,-2603.390989,-10145.567824
17549.134873,650.847747,-1263.410333,-9954.142016
17549.137402,2909.672282,4996.213589,-9724.431046
17549.139930,38.285162,325.423874,-9647.860723
17549.142459,-2029.113565,-1301.695494,-9934.999435
17549.144987,363.709035,3962.514226,-9896.714274
17549.147516,1531.406464,-1071.984525,-10068.997501
17549.150044,-1722.832272,-1703.689691,-9934.999435
17549.152573,1933.400661,2909.672282,-9877.571693
17549.155101,-2354.537438,-3005.385186,-9877.571693
17549.157630,-3905.086483,363.709035,-9954.142016
17549.160158,-1339.980656,3579.662610,-9915.856854
17549.162687,497.707101,-459.421939,-9858.429112
17549.165215,-842.273555,-3292.523898,-10011.569758
17549.167744,-784.845813,4555.934230,-9762.716208
17549.170272,-1225.125171,1473.978722,-9494.720077
17549.172801,-2641.676150,-3483.949706,-10049.854920
17549.175329,-287.138712,689.132909,-10088.140082
17549.177858,19.142581,2565.105827,-9877.571693
17549.180386,-803.988394,-2143.969050,-9858.429112
17549.182915,-1646.261949,-1186.840010,-9686.145885
17549.185443,-1818.545176,2699.103893,-9915.856854
17549.187971,-3177.668413,-1110.269686,-10088.140082
17549.190500,-918.843878,-1263.410333,-10011.569758
17549.193028,-382.851616,516.849682,-10011.569758
17549.195557,191.425808,1071.984525,-9781.858789
17549.198085,-3177.668413,-1818.545176,-9781.858789
17549.200614,-2105.683888,4211.367776,-9667.003304
17549.203142,2756.531635,-861.416136,-9973.284597
17549.205671,-1435.693560,-3847.658741,-10260.423309
17549.208199,3943.371645,4498.506488,-10145.567824
17549.210728,689.132909,191.425808,-9418.149754
17549.213256,-1933.400661,-1588.834206,-9801.001370
17549.215785,-880.558717,6661.618118,-10030.712339
17549.218313,574.277424,-248.853550,-9954.142016
17549.220842,593.420005,-4823.930362,-9973.284597
17549.223375,325.423874,-2067.398726,-9762.716208
17549.225908,-191.425808,5111.069074,-9781.858789
17549.228441,-1091.127106,803.988394,-9934.999435
17549.230974,-995.414202,-3962.514226,-10317.851051
17549.233507,1473.978722,2737.389054,-10049.854920
17549.236040,2794.816797,4153.940034,-9801.001370
17549.238573,-765.703232,-2411.965181,-9801.001370
17549.241106,-1071.984525,995.414202,-9877.571693
17549.243639,1607.976787,4287.938099,-9820.143950
17549.246172,-325.423874,-3847.658741,-10222.138147
17549.248705,-1971.685822,172.283227,-10145.567824
17549.251238,3560.520029,3713.660675,-9839.286531
17549.253771,-1110.269686,-2182.254211,-9647.860723
17549.256304,-4173.082614,-3483.949706,-9781.858789
17549.258837,-1550.549045,4823.930362,-9801.001370
17549.261370,344.566454,-1014.556782,-9858.429112
17549.263903,-957.129040,-3215.953574,-9954.142016
17549.266437,-382.851616,4670.789715,-9858.429112
17549.268970,-1263.410333,382.851616,-9571.290400
17549.271503,-3024.527766,-3598.805190,-9973.284597
17549.274036,-401.994197,2048.256146,-10030.712339
17549.276569,-133.998066,1990.828403,-9839.286531
17549.279102,-727.418070,-2775.674216,-9781.858789
17549.281635,-1339.980656,-267.996131,-9705.288466
17549.284168,-1741.974853,2718.246474,-9762.716208
17549.286701,-306.281293,-287.138712,-10088.140082
17549.289234,-1205.982590,-2488.535504,-10126.425243
17549.291767,-172.283227,1397.408398,-10049.854920
17549.294300,-95.712904,2239.681954,-9820.143950
17549.296833,-2488.535504,-3158.525832,-9801.001370
17549.299366,-2794.816797,3771.088418,-9762.716208
17549.301899,3235.096155,1722.832272,-9934.999435
17549.304432,-1646.261949,-5436.492947,-10126.425243
17549.306965,3005.385186,4019.941968,-9992.427178
17549.309498,1607.976787,3847.658741,-9399.007173
17549.312031,-2220.539373,-3522.234867,-9762.716208
17549.314564,-1225.125171,4441.078746,-10164.710405
17549.317097,1129.412267,4862.215523,-10049.854920
17549.319630,1837.687757,-669.990328,-9743.573627
17549.322163,-421.136778,-3847.658741,-9801.001370
17549.324681,-114.855485,3751.945837,-9877.571693
17549.327198,-535.992262,3943.371645,-9839.286531
17549.329715,-937.986459,-3503.092286,-10107.282662
17549.332233,1129.412267,-478.564520,-10011.569758
17549.334750,2967.100024,4938.785846,-9801.001370
17549.337267,-248.853550,-1263.410333,-9896.714274
17549.339784,-1263.410333,-957.129040,-10049.854920
17549.342302,-516.849682,5436.492947,-9877.571693
17549.344819,1933.400661,382.851616,-9934.999435
17549.347336,-1971.685822,-4900.500685,-10088.140082
17549.349853,-3579.662610,1167.697429,-9915.856854
17549.352371,593.420005,5072.783912,-9437.292334
17549.354888,-3847.658741,-5742.774240,-9647.860723
17549.357405,-2067.398726,-937.986459,-10298.708470
17549.359923,1550.549045,4498.506488,-10030.712339
17549.362440,-1052.841944,-4651.647134,-10068.997501
17549.364957,-2622.533570,976.271621,-10049.854920
17549.367474,95.712904,6163.911018,-9399.007173
17549.369992,-2009.970984,-2105.683888,-9801.001370
17549.372509,-1435.693560,-4249.652938,-10107.282662
17549.375026,421.136778,3005.385186,-10068.997501
17549.377544,-344.566454,516.849682,-9667.003304
17549.380061,-3062.812928,-3330.809059,-9839.286531
17549.382578,-4211.367776,-1703.689691,-9992.427178
17549.385095,421.136778,4019.941968,-9686.145885
17549.387613,516.849682,-1359.123237,-9743.573627
17549.390130,-344.566454,-3713.660675,-10011.569758
17549.392647,-2756.531635,2622.533570,-10049.854920
17549.395165,-287.138712,1607.976787,-9858.429112
17549.397682,-1320.838075,-4747.360038,-9762.716208
17549.400199,937.986459,5149.354235,-10088.140082
17549.402716,3637.090352,1741.974853,-10145.567824
17549.405234,-574.277424,-4804.787781,-10164.710405
17549.407751,497.707101,5685.346498,-9973.284597
17549.410268,-267.996131,4019.941968,-9743.573627
17549.412785,172.283227,-2737.389054,-9973.284597
17549.415303,-153.140646,-4211.367776,-10126.425243
17549.417820,2029.113565,4058.227130,-9839.286531
17549.420337,-95.712904,2182.254211,-9686.145885
17549.422855,-1531.406464,-4249.652938,-9954.142016
17549.425378,-114.855485,1339.980656,-9992.427178
17549.427902,1550.549045,4938.785846,-9934.999435
17549.430426,976.271621,-1607.976787,-10049.854920
17549.432950,-153.140646,-957.129040,-9877.571693
17549.435474,1091.127106,4709.074877,-9724.431046
17549.437998,344.566454,1416.550979,-9686.145885
17549.440522,-1282.552914,-4479.363907,-10088.140082
17549.443046,-1014.556782,3081.955509,-10126.425243
17549.445570,861.416136,5225.924558,-9992.427178
17549.448094,-1359.123237,-4613.361973,-9762.716208
17549.450618,-4402.793584,-3464.807125,-9762.716208
17549.453142,-880.558717,6642.475538,-9590.432981
17549.455665,-191.425808,-1895.115499,-9820.143950
17549.458189,-1493.121302,-3713.660675,-10088.140082
17549.460713,306.281293,5685.346498,-9954.142016
17549.463237,-1186.840010,-574.277424,-9705.288466
17549.465761,-3541.377448,-4192.225195,-9934.999435
17549.468285,-440.279358,3732.803256,-9839.286531
17549.470809,-133.998066,1952.543242,-9820.143950
17549.473333,-1014.556782,-4249.652938,-9896.714274
17549.475857,-2737.389054,-3541.377448,-9973.284597
17549.478381,-2450.250342,3081.955509,-9858.429112
17549.480905,-401.994197,1493.121302,-9781.858789
17549.483429,-1339.980656,-4000.799387,-9954.142016
17549.485952,631.705166,-344.566454,-10068.997501
17549.488476,-1703.689691,3311.666478,-9934.999435
17549.491000,-765.703232,-2105.683888,-9973.284597
17549.493524,-2660.818731,-2316.252277,-9839.286531
17549.496048,2201.396792,6680.760699,-9858.429112
17549.498572,2316.252277,-1569.691626,-10068.997501
17549.501096,-57.427742,-2545.963246,-10088.140082
17549.503620,1493.121302,8001.598774,-9781.858789
17549.506144,133.998066,-133.998066,-9839.286531
17549.508668,-784.845813,-5398.207786,-10107.282662
17549.511192,-38.285162,-1301.695494,-10164.710405
17549.513715,2009.970984,4862.215523,-9820.143950
17549.516239,-172.283227,-459.421939,-9896.714274
17549.518763,-842.273555,-3790.230998,-10030.712339
17549.521287,229.710970,3541.377448,-9992.427178
17549.523811,861.416136,3656.232933,-9877.571693
17549.526341,535.992262,-2871.387120,-9992.427178
17549.528870,516.849682,1071.984525,-9915.856854
17549.531399,1665.404530,4517.649069,-9686.145885
17549.533929,-784.845813,248.853550,-9762.716208
17549.536458,-535.992262,-3005.385186,-10145.567824
17549.538987,-1397.408398,-1914.258080,-10068.997501
17549.541517,57.427742,5072.783912,-10011.569758
17549.544046,-1225.125171,-4383.651003,-9705.288466
17549.546576,-4192.225195,-4115.654872,-9762.716208
17549.549105,-631.705166,6565.905214,-9552.147819
17549.551634,-440.279358,-1110.269686,-9839.286531
17549.554164,-1761.117434,-4383.651003,-10164.710405
17549.556693,153.140646,5838.487144,-9934.999435
17549.559223,-650.847747,267.996131,-9647.860723
17549.561752,-3177.668413,-4594.219392,-10030.712339
17549.564281,-631.705166,3081.955509,-9781.858789
17549.566811,287.138712,2775.674216,-9762.716208
17549.569340,-1186.840010,-4383.651003,-9724.431046
17549.571870,-3062.812928,-4153.940034,-9915.856854
17549.574399,-1933.400661,2163.111630,-9915.856854
17549.576928,-459.421939,2220.539373,-9820.143950
17549.579458,-1761.117434,-2660.818731,-9973.284597
17549.581987,363.709035,-612.562586,-9954.142016
17549.584516,-2258.824534,1646.261949,-9801.001370
17549.587046,-1014.556782,1186.840010,-9628.718142
17549.589575,76.570323,-3962.514226,-9762.716208
17549.592105,248.853550,2947.957443,-10107.282662
17549.594634,3617.947771,2584.248408,-10107.282662
17549.597163,-689.132909,-4000.799387,-10049.854920
17549.599693,363.709035,3828.516160,-9934.999435
17549.602222,-248.853550,5225.924558,-9877.571693
17549.604752,555.134843,-842.273555,-10011.569758
17549.607281,38.285162,-4709.074877,-10088.140082
17549.609810,957.129040,2048.256146,-9915.856854
17549.612340,-363.709035,3656.232933,-9724.431046
17549.614869,-1339.980656,-2469.392923,-9781.858789
17549.617399,-459.421939,-976.271621,-10068.997501
17549.619928,2105.683888,4575.076811,-9915.856854
17549.622457,976.271621,344.566454,-10049.854920
17549.624987,-708.275490,-2641.676150,-10068.997501
17549.627502,2067.398726,2928.814862,-9877.571693
17549.630016,-937.986459,2890.529701,-9896.714274
17549.632531,-133.998066,-19.142581,-10107.282662
17549.635046,823.130974,-3349.951640,-10011.569758
17549.637561,-3579.662610,918.843878,-9934.999435
17549.640076,248.853550,5245.067139,-9667.003304
17549.642591,-3713.660675,-4364.508422,-9609.575562
17549.645106,-1722.832272,-3215.953574,-10202.995566
17549.647620,1875.972918,4938.785846,-10088.140082
17549.650135,-861.416136,-3579.662610,-10068.997501
17549.652650,-3388.236802,-765.703232,-10068.997501
17549.655165,38.285162,6010.770371,-9590.432981
17549.657680,-842.273555,-612.562586,-9743.573627
17549.660195,-1397.408398,-5302.494882,-10202.995566
17549.662710,-325.423874,2545.963246,-10164.710405
17549.665224,-440.279358,2507.678085,-9858.429112
17549.667739,-3943.371645,-516.849682,-9934.999435
17549.670254,-2067.398726,-2220.539373,-9877.571693
17549.672769,555.134843,1799.402595,-9820.143950
17549.675284,516.849682,-535.992262,-10011.569758
17549.677799,-2297.109696,-19.142581,-10068.997501
17549.680313,-631.705166,-287.138712,-10049.854920
17549.682828,-2526.820666,363.709035,-9724.431046
17549.685343,2469.392923,2641.676150,-9839.286531
17549.687858,478.564520,-2201.396792,-9992.427178
17549.690373,1339.980656,2163.111630,-9973.284597
17549.692888,1320.838075,5455.635528,-9686.145885
17549.695403,-1799.402595,-2947.957443,-9973.284597
17549.697917,-803.988394,-4134.797453,-10222.138147
17549.700432,478.564520,2775.674216,-10049.854920
17549.702947,1722.832272,2469.392923,-9667.003304
17549.705462,-210.568389,-2373.680019,-9839.286531
17549.707977,-172.283227,-497.707101,-9934.999435
17549.710492,38.285162,4421.936165,-9992.427178
17549.713007,382.851616,344.566454,-9954.142016
17549.715521,976.271621,-2277.967115,-9934.999435
17549.718036,1244.267752,2986.242605,-9839.286531
17549.720551,1148.554848,2450.250342,-9896.714274
17549.723066,-2354.537438,95.712904,-9839.286531
17549.725581,861.416136,669.990328,-9934.999435
17549.728103,114.855485,-1378.265818,-10011.569758
17549.730625,-2105.683888,2316.252277,-9896.714274
17549.733147,-555.134843,-172.283227,-9686.145885
17549.735669,-3751.945837,-4134.797453,-9647.860723
17549.738191,-746.560651,2163.111630,-9896.714274
17549.740713,325.423874,1512.263883,-9858.429112
17549.743235,-1856.830338,-4096.512291,-10164.710405
17549.745758,-1205.982590,3905.086483,-10107.282662
17549.748280,76.570323,2450.250342,-9571.290400
17549.750802,-1990.828403,-3656.232933,-9896.714274
17549.753324,-1359.123237,-1914.258080,-10145.567824
17549.755846,-727.418070,3043.670347,-10068.997501
17549.758368,-1320.838075,133.998066,-9801.001370
17549.760890,-4134.797453,-1550.549045,-9762.716208
17549.763412,-1052.841944,-401.994197,-9724.431046
17549.765934,574.277424,1071.984525,-9781.858789
17549.768456,-784.845813,-899.701298,-10030.712339
17549.770979,-1990.828403,1071.984525,-9992.427178
17549.773501,-555.134843,-669.990328,-10049.854920
17549.776023,-2507.678085,823.130974,-9705.288466
17549.778545,2469.392923,2469.392923,-9781.858789
17549.781067,-210.568389,-2833.101958,-10011.569758
17549.783589,1761.117434,2603.390989,-10049.854920
17549.786111,1588.834206,4881.358104,-9628.718142
17549.788633,-1684.547110,-2967.100024,-9801.001370
17549.791155,-861.416136,2163.111630,-10260.423309
17549.793677,689.132909,3809.373579,-10068.997501
17549.796200,1703.689691,1493.121302,-9705.288466
17549.798722,-172.283227,-3330.809059,-9934.999435
17549.801244,-248.853550,669.990328,-9934.999435
17549.803766,-248.853550,4977.071008,-9973.284597
17549.806288,95.712904,-1033.699363,-9801.001370
17549.808810,937.986459,-1914.258080,-9839.286531
17549.811332,1550.549045,3675.375514,-9839.286531
17549.813854,1301.695494,1167.697429,-9934.999435
17549.816376,-2833.101958,-153.140646,-9934.999435
17549.818898,1703.689691,2660.818731,-9877.571693
17549.821421,-574.277424,-1167.697429,-9858.429112
17549.823943,-3024.527766,842.273555,-9858.429112
17549.826465,-421.136778,2124.826469,-9686.145885
17549.828993,-3541.377448,-3464.807125,-9628.718142
17549.831521,-995.414202,-842.273555,-10011.569758
17549.834050,784.845813,2565.105827,-9973.284597
17549.836578,-1435.693560,-3139.383251,-10107.282662
17549.839106,-1952.543242,2469.392923,-10088.140082
17549.841634,-593.420005,3369.094221,-9647.860723
17549.844163,-1378.265818,-1703.689691,-9820.143950
17549.846691,-727.418070,-2928.814862,-9973.284597
17549.849219,-899.701298,1359.123237,-10030.712339
17549.851747,-1244.267752,937.986459,-9820.143950
17549.854276,-3407.379382,-1971.685822,-9992.427178
17549.856804,-1550.549045,-497.707101,-9820.143950
17549.859332,38.285162,1493.121302,-9705.288466
17549.861860,746.560651,-1282.552914,-10049.854920
17549.864389,-3273.381317,-421.136778,-9915.856854
17549.866917,191.425808,784.845813,-10030.712339
17549.869445,-1646.261949,-2258.824534,-9743.573627
17549.871973,957.129040,3656.232933,-9934.999435
17549.874502,2373.680019,746.560651,-10068.997501
17549.877030,172.283227,-1339.980656,-10011.569758
17549.879558,803.988394,5340.780043,-9915.856854
17549.882086,-861.416136,497.707101,-9915.856854
17549.884615,-784.845813,-2852.244539,-10088.140082
17549.887143,-19.142581,-1148.554848,-10164.710405
17549.889671,1359.123237,3503.092286,-9896.714274
17549.892199,-172.283227,-133.998066,-9839.286531
17549.894728,-459.421939,-3101.098090,-10049.854920
17549.897256,-38.285162,2928.814862,-9992.427178
17549.899784,1588.834206,3905.086483,-9877.571693
17549.902312,-57.427742,-1933.400661,-10030.712339
17549.904841,574.277424,535.992262,-9877.571693
17549.907369,2699.103893,3330.809059,-9667.003304
17549.909897,-1244.267752,-2335.394858,-10164.710405
17549.912425,-2258.824534,1837.687757,-10068.997501
17549.914954,2373.680019,1033.699363,-9992.427178
17549.917482,-3426.521963,-1703.689691,-9858.429112
17549.920010,-2737.389054,76.570323,-10011.569758
17549.922538,-1914.258080,2660.818731,-9743.573627
17549.925067,-1205.982590,-3847.658741,-9858.429112
17549.927595,478.564520,574.277424,-9954.142016
17549.930128,133.998066,1186.840010,-10011.569758
17549.932662,-2775.674216,-1761.117434,-10126.425243
17549.935195,-2488.535504,1263.410333,-9973.284597
17549.937729,-976.271621,2622.533570,-9667.003304
17549.940262,-172.283227,-1569.691626,-9858.429112
17549.942796,-823.130974,-2411.965181,-9915.856854
17549.945329,-2029.113565,1359.123237,-9781.858789
17549.947863,-1799.402595,57.427742,-10049.854920
17549.950396,-1205.982590,-1990.828403,-10011.569758
17549.952930,-1493.121302,-574.277424,-10049.854920
17549.955463,19.142581,3962.514226,-9801.001370
17549.957996,-1301.695494,-1837.687757,-9820.143950
17549.960530,-2737.389054,1071.984525,-9762.716208
17549.963063,2890.529701,1952.543242,-9896.714274
17549.965597,-1359.123237,-4153.940034,-9915.856854
17549.968130,2392.822600,2565.105827,-10126.425243
17549.970664,1607.976787,3924.229064,-9552.147819
17549.973197,-1588.834206,-1875.972918,-9724.431046
17549.975731,-861.416136,3311.666478,-10011.569758
17549.978264,765.703232,1531.406464,-9992.427178
17549.980798,957.129040,-3713.660675,-10068.997501
17549.983331,-497.707101,-3081.955509,-9992.427178
17549.985864,-612.562586,2622.533570,-9877.571693
17549.988398,-191.425808,4211.367776,-9839.286531
17549.990931,114.855485,-2029.113565,-9896.714274
17549.993465,1071.984525,267.996131,-9858.429112
17549.995998,1703.689691,3598.805190,-9839.286531
17549.998532,1110.269686,-1416.550979,-10011.569758
17550.001065,-2679.961312,344.566454,-9915.856854
17550.003599,1588.834206,4747.360038,-9973.284597
17550.006132,-267.996131,-3043.670347,-9896.714274
17550.008666,-3235.096155,823.130974,-10068.997501
17550.011199,-57.427742,2335.394858,-9647.860723
17550.013732,-2411.965181,-1837.687757,-9590.432981
17550.016266,-1875.972918,-4747.360038,-9992.427178
17550.018799,1397.408398,3196.810994,-10068.997501
17550.021333,-497.707101,-1129.412267,-10068.997501
17550.023866,-3177.668413,-382.851616,-10011.569758
17550.026400,-899.701298,4153.940034,-9705.288466
17550.028933,-497.707101,172.283227,-9743.573627
17550.031471,-650.847747,-5053.641331,-10126.425243
17550.034009,-880.558717,535.992262,-10202.995566
17550.036547,-1225.125171,2641.676150,-9896.714274
17550.039085,-2545.963246,-2737.389054,-9896.714274
17550.041623,-1416.550979,325.423874,-9820.143950
17550.044161,-497.707101,3158.525832,-9858.429112
17550.046699,689.132909,2086.541307,-9743.573627
17550.049237,-2699.103893,-3713.660675,-9954.142016
17550.051775,-1454.836141,3771.088418,-9858.429112
17550.054312,2718.246474,574.277424,-9762.716208
17550.056850,-2201.396792,-4555.934230,-10068.997501
17550.059388,3177.668413,4192.225195,-10241.280728
17550.061926,1646.261949,1875.972918,-9705.288466
17550.064464,-1512.263883,-2086.541307,-9858.429112
17550.067002,-535.992262,4862.215523,-9839.286531
17550.069540,746.560651,0.000000,-9858.429112
17550.072078,306.281293,-4173.082614,-10202.995566
17550.074616,1301.695494,746.560651,-10107.282662
17550.077154,287.138712,2756.531635,-9839.286531
17550.079691,-574.277424,2048.256146,-9992.427178
17550.082229,-325.423874,-1205.982590,-10088.140082
17550.084767,1263.410333,2048.256146,-9820.143950
17550.087305,1512.263883,1856.830338,-9839.286531
17550.089843,1186.840010,-1320.838075,-10049.854920
17550.092381,-1952.543242,957.129040,-10030.712339
17550.094919,823.130974,3981.656806,-9934.999435
17550.097457,-401.994197,-3254.238736,-9896.714274
17550.099995,-3311.666478,1320.838075,-9992.427178
17550.102533,-38.285162,2909.672282,-9667.003304
17550.105070,-3158.525832,-5130.211654,-9667.003304
17550.107608,-1722.832272,-325.423874,-10088.140082
17550.110146,1282.552914,3024.527766,-10049.854920
17550.112684,-363.709035,-669.990328,-10107.282662
17550.115222,-3464.807125,-861.416136,-10030.712339
17550.117760,-1359.123237,4077.369710,-9628.718142
