#time,accel_x,accel_y,accel_z
17673.312555,-478.564520,382.851616,-9877.571693
17673.315103,-421.136778,325.423874,-9992.427178
17673.317652,-459.421939,287.138712,-9934.999435
17673.320200,-401.994197,344.566454,-9915.856854
17673.322749,-497.707101,306.281293,-9934.999435
17673.325297,-153.140646,57.427742,-9954.142016
17673.327846,95.712904,-287.138712,-9915.856854
17673.330394,-0.000000,593.420005,-9839.286531
17673.332942,-689.132909,-153.140646,-9877.571693
17673.335491,-727.418070,-287.138712,-9896.714274
17673.338039,-76.570323,631.705166,-9896.714274
17673.340588,-191.425808,-861.416136,-9954.142016
17673.343136,19.142581,-2048.256146,-10030.712339
17673.345684,-727.418070,880.558717,-9839.286531
17673.348233,-440.279358,937.986459,-9743.573627
17673.350781,-918.843878,-1359.123237,-9954.142016
17673.353330,650.847747,2565.105827,-9915.856854
17673.355878,1148.554848,248.853550,-10011.569758
17673.358427,-1091.127106,-382.851616,-10088.140082
17673.360976,-1397.408398,-459.421939,-9973.284597
17673.363525,-1397.408398,3005.385186,-9858.429112
17673.366074,-1301.695494,-325.423874,-9801.001370
17673.368623,421.136778,-727.418070,-10183.852986
17673.371172,555.134843,2507.678085,-10049.854920
17673.373721,-1148.554848,-229.710970,-9820.143950
17673.376270,-1761.117434,-497.707101,-9992.427178
17673.378819,-497.707101,1856.830338,-9896.714274
17673.381368,-287.138712,1282.552914,-9858.429112
17673.383917,-746.560651,-1186.840010,-9820.143950
17673.386466,-95.712904,1359.123237,-9896.714274
17673.389015,-727.418070,1167.697429,-9934.999435
17673.391564,-1741.974853,-689.132909,-9954.142016
17673.394113,-899.701298,344.566454,-9973.284597
17673.396661,-95.712904,1646.261949,-9743.573627
17673.399210,-765.703232,344.566454,-9877.571693
17673.401759,-1397.408398,-1148.554848,-9934.999435
17673.404308,-842.273555,2316.252277,-9934.999435
17673.406857,-459.421939,1550.549045,-9992.427178
17673.409406,-631.705166,133.998066,-10011.569758
17673.411955,-478.564520,-612.562586,-9839.286531
17673.414504,114.855485,2009.970984,-9743.573627
17673.417053,-1282.552914,1359.123237,-9801.001370
17673.419602,-1148.554848,-1205.982590,-9934.999435
17673.422151,-153.140646,976.271621,-10107.282662
17673.424700,-574.277424,1225.125171,-9934.999435
17673.427249,-995.414202,-1416.550979,-9858.429112
17673.429798,-746.560651,2947.957443,-9762.716208
17673.432347,-325.423874,306.281293,-9934.999435
17673.434896,-861.416136,1550.549045,-9915.856854
17673.437445,-1148.554848,-1780.260014,-10011.569758
17673.439994,1627.119368,1550.549045,-9762.716208
17673.442543,-1110.269686,3503.092286,-9839.286531
17673.445092,-3273.381317,-8748.159426,-10241.280728
17673.447641,3292.523898,8920.442653,-9934.999435
17673.450190,-325.423874,-1531.406464,-10049.854920
17673.452739,-4000.799387,-10451.849117,-10011.569758
17673.455288,3541.377448,13170.095590,-9571.290400
17673.457837,-555.134843,-3062.812928,-9705.288466
17673.460386,-3943.371645,-8001.598774,-10107.282662
17673.462935,2718.246474,10126.425243,-9724.431046
17673.465484,-899.701298,-2220.539373,-10088.140082
17673.468033,-2813.959378,-7523.034254,-10068.997501
17673.470582,1282.552914,7293.323285,-9647.860723
17673.473131,2048.256146,5455.635528,-9877.571693
17673.475681,-1799.402595,-5857.629725,-10107.282662
17673.478230,-918.843878,-153.140646,-9973.284597
17673.480779,669.990328,5149.354235,-9801.001370
17673.483328,-669.990328,-3483.949706,-9973.284597
17673.485877,-497.707101,-842.273555,-10049.854920
17673.488426,1225.125171,3177.668413,-9973.284597
17673.490976,-306.281293,-1607.976787,-9858.429112
17673.493525,-1129.412267,-612.562586,-9877.571693
17673.496074,-631.705166,1856.830338,-9934.999435
17673.498623,-38.285162,-803.988394,-10049.854920
17673.501172,191.425808,-574.277424,-10030.712339
17673.503721,133.998066,133.998066,-10011.569758
17673.506270,-76.570323,-172.283227,-9896.714274
17673.508820,-976.271621,-937.986459,-10049.854920
17673.511369,-1014.556782,535.992262,-9915.856854
17673.513918,19.142581,1014.556782,-9801.001370
17673.516467,440.279358,-1684.547110,-10030.712339
17673.519016,-229.710970,880.558717,-10011.569758
17673.521565,-689.132909,38.285162,-10011.569758
17673.524115,-1091.127106,-976.271621,-9896.714274
17673.526664,210.568389,1952.543242,-9820.143950
17673.529213,114.855485,-1263.410333,-10011.569758
17673.531762,-76.570323,-114.855485,-9858.429112
17673.534311,-1014.556782,-555.134843,-9934.999435
17673.536860,133.998066,-784.845813,-9915.856854
17673.539409,-535.992262,3790.230998,-9954.142016
17673.541959,-3005.385186,-6049.055533,-10126.425243
17673.544508,1990.828403,5991.627790,-9533.005238
17673.547057,-95.712904,3062.812928,-10107.282662
17673.549606,-4632.504554,-10853.843314,-10164.710405
17673.552155,3235.096155,12519.247843,-9762.716208
17673.554704,57.427742,-516.849682,-9705.288466
17673.557254,-4364.508422,-7618.747158,-10164.710405
17673.559803,2163.111630,9245.866526,-9858.429112
17673.562352,-765.703232,1129.412267,-9686.145885
17673.564901,-3139.383251,-6967.899411,-10088.140082
17673.567451,-861.416136,6068.198114,-10126.425243
17673.570000,535.992262,5838.487144,-9877.571693
17673.572549,-1914.258080,-3292.523898,-9801.001370
17673.575098,-899.701298,1071.984525,-9820.143950
17673.577648,95.712904,3981.656806,-9724.431046
17673.580197,-880.558717,-2526.820666,-10030.712339
17673.582746,-172.283227,1416.550979,-9992.427178
17673.585296,-421.136778,1933.400661,-10068.997501
17673.587845,-1301.695494,-1665.404530,-9839.286531
17673.590394,-114.855485,1684.547110,-9686.145885
17673.592943,-19.142581,2067.398726,-10126.425243
17673.595493,-765.703232,-1761.117434,-9954.142016
17673.598042,-516.849682,1263.410333,-9839.286531
17673.600591,-516.849682,3828.516160,-9934.999435
17673.603141,-727.418070,1282.552914,-9877.571693
17673.605690,-1167.697429,-2105.683888,-10030.712339
17673.608239,631.705166,3024.527766,-9858.429112
17673.610789,-612.562586,1952.543242,-9801.001370
17673.613338,-1703.689691,-1818.545176,-9954.142016
17673.615887,-248.853550,1627.119368,-9915.856854
17673.618436,-421.136778,1320.838075,-9896.714274
17673.620986,-248.853550,-708.275490,-9896.714274
17673.623535,-459.421939,1607.976787,-9915.856854
17673.626084,-478.564520,1493.121302,-9954.142016
17673.628634,-1244.267752,-38.285162,-10088.140082
17673.631183,38.285162,1167.697429,-9820.143950
17673.633732,-937.986459,3713.660675,-9839.286531
17673.636281,-1875.972918,-5034.498750,-10011.569758
17673.638831,2641.676150,5532.205851,-9877.571693
17673.641380,-1684.547110,-325.423874,-10145.567824
17673.643929,-2833.101958,-9111.868461,-9858.429112
17673.646479,4843.072942,12959.527202,-9647.860723
17673.649028,-2105.683888,-6565.905214,-9954.142016
17673.651577,-3847.658741,-5761.916821,-10107.282662
17673.654127,4383.651003,11121.839445,-9743.573627
17673.656676,-1225.125171,-3885.943902,-9896.714274
17673.659225,-2182.254211,-6087.340694,-10030.712339
17673.661774,2354.537438,9092.725880,-9647.860723
17673.664324,1397.408398,6144.768437,-9705.288466
17673.666873,-1799.402595,-7369.893608,-10030.712339
17673.669422,19.142581,1397.408398,-9934.999435
17673.671971,1416.550979,4364.508422,-9896.714274
17673.674521,-1780.260014,-4996.213589,-10164.710405
17673.677070,-631.705166,1339.980656,-10011.569758
17673.679619,631.705166,2967.100024,-9839.286531
17673.682168,-1033.699363,-3292.523898,-9858.429112
17673.684718,-803.988394,114.855485,-9934.999435
17673.687267,-306.281293,2354.537438,-9820.143950
17673.689816,-478.564520,-1263.410333,-10011.569758
17673.692366,-287.138712,-612.562586,-10049.854920
17673.694915,382.851616,1397.408398,-9954.142016
17673.697464,95.712904,-210.568389,-9992.427178
17673.700013,-497.707101,-1033.699363,-9973.284597
17673.702563,-593.420005,937.986459,-9934.999435
17673.705112,-535.992262,-267.996131,-10011.569758
17673.707661,-0.000000,-1320.838075,-9992.427178
17673.710210,306.281293,1799.402595,-9858.429112
17673.712760,-574.277424,-765.703232,-10030.712339
17673.715309,-1052.841944,-1435.693560,-9992.427178
17673.717858,612.562586,2986.242605,-9858.429112
17673.720407,267.996131,-1263.410333,-9934.999435
17673.722957,-555.134843,-746.560651,-10049.854920
17673.725506,-516.849682,-382.851616,-10030.712339
17673.728055,516.849682,1071.984525,-9839.286531
17673.730604,-1071.984525,2143.969050,-10049.854920
17673.733154,-1684.547110,-6470.192310,-10202.995566
17673.735703,3024.527766,9399.007173,-9686.145885
17673.738252,-2086.541307,-1550.549045,-10030.712339
17673.740802,-3866.801322,-7446.463931,-9896.714274
17673.743351,3885.943902,14452.648504,-9686.145885
17673.745900,-1627.119368,-5857.629725,-9839.286531
17673.748449,-3445.664544,-4938.785846,-10202.995566
17673.750999,2909.672282,11064.411702,-9705.288466
17673.753548,-1550.549045,-2756.531635,-9647.860723
17673.756097,-2373.680019,-4173.082614,-9820.143950
17673.758646,1225.125171,7905.885870,-9877.571693
17673.761196,631.705166,3732.803256,-9877.571693
17673.763745,-1454.836141,-2890.529701,-9915.856854
17673.766294,-784.845813,2660.818731,-9896.714274
17673.768844,-631.705166,2526.820666,-9934.999435
17673.771393,-937.986459,-1741.974853,-9954.142016
17673.773943,191.425808,1665.404530,-9954.142016
17673.776492,-650.847747,803.988394,-9858.429112
17673.779042,-1244.267752,-1052.841944,-9877.571693
17673.781591,-689.132909,1818.545176,-9839.286531
17673.784141,-1397.408398,1071.984525,-9954.142016
17673.786690,-555.134843,-976.271621,-9973.284597
17673.789239,133.998066,2277.967115,-9877.571693
17673.791789,-401.994197,2220.539373,-9934.999435
17673.794338,-1550.549045,-803.988394,-9992.427178
17673.796888,-535.992262,1435.693560,-9915.856854
17673.799437,-555.134843,2603.390989,-9896.714274
17673.801987,-478.564520,-1167.697429,-9915.856854
17673.804536,344.566454,593.420005,-10011.569758
17673.807086,-1186.840010,1895.115499,-9896.714274
17673.809635,-1493.121302,-1741.974853,-9896.714274
17673.812185,-823.130974,2565.105827,-9801.001370
17673.814734,191.425808,1397.408398,-9839.286531
17673.817284,-1033.699363,-19.142581,-9954.142016
17673.819833,-38.285162,-535.992262,-9820.143950
17673.822382,-555.134843,5187.639397,-9858.429112
17673.824932,-2660.818731,-2297.109696,-10145.567824
17673.827481,-363.709035,-2660.818731,-9705.288466
17673.830031,1780.260014,8939.585234,-9686.145885
17673.832580,-4115.654872,-11217.552349,-10011.569758
17673.835130,1301.695494,3139.383251,-9801.001370
17673.837679,2852.244539,6929.614250,-9877.571693
17673.840229,-4287.938099,-10183.852986,-10126.425243
17673.842778,784.845813,3751.945837,-9839.286531
17673.845328,1703.689691,6891.329088,-9801.001370
17673.847877,-2718.246474,-8843.872330,-10183.852986
17673.850426,306.281293,1875.972918,-9896.714274
17673.852976,708.275490,5149.354235,-9820.143950
17673.855525,-287.138712,-5723.631659,-9877.571693
17673.858075,-1091.127106,-3694.518094,-10126.425243
17673.860624,1205.982590,4173.082614,-9820.143950
17673.863174,-727.418070,-1071.984525,-9896.714274
17673.865723,-1110.269686,-1856.830338,-9992.427178
17673.868273,-574.277424,2928.814862,-9801.001370
17673.870822,-708.275490,-1512.263883,-9992.427178
17673.873371,-76.570323,-76.570323,-9915.856854
17673.875921,-191.425808,1282.552914,-9839.286531
17673.878470,-267.996131,-784.845813,-9896.714274
17673.881020,-114.855485,708.275490,-9973.284597
17673.883569,-823.130974,-440.279358,-10011.569758
17673.886118,-344.566454,-574.277424,-10011.569758
17673.888668,19.142581,210.568389,-9992.427178
17673.891217,19.142581,-440.279358,-10011.569758
17673.893767,-1148.554848,-95.712904,-9992.427178
17673.896316,-823.130974,-76.570323,-9858.429112
17673.898865,497.707101,287.138712,-10049.854920
17673.901415,229.710970,1435.693560,-9992.427178
17673.903964,-535.992262,-2201.396792,-10030.712339
17673.906514,-880.558717,95.712904,-9801.001370
17673.909063,459.421939,421.136778,-9820.143950
17673.911612,-1033.699363,918.843878,-10049.854920
17673.914162,-708.275490,-4517.649069,-10049.854920
17673.916711,1856.830338,6508.477472,-9686.145885
17673.919261,-3158.525832,-3158.525832,-10068.997501
17673.921810,-3273.381317,-9954.142016,-10298.708470
17673.924359,2813.959378,11083.554283,-9781.858789
17673.926909,-1301.695494,172.283227,-9858.429112
17673.929458,-4211.367776,-7542.176835,-10030.712339
17673.932007,3024.527766,10202.995566,-9858.429112
17673.934557,-612.562586,-574.277424,-9686.145885
17673.937106,-3043.670347,-7140.182638,-10356.136213
17673.939656,803.988394,8078.169098,-9762.716208
17673.942205,-593.420005,995.414202,-9686.145885
17673.944754,-1684.547110,-4651.647134,-9896.714274
17673.947304,95.712904,3847.658741,-9973.284597
17673.949853,-57.427742,1799.402595,-9781.858789
17673.952403,-1397.408398,-612.562586,-9781.858789
17673.954952,-976.271621,-172.283227,-9954.142016
17673.957501,-287.138712,2622.533570,-9877.571693
17673.960051,-440.279358,-57.427742,-9724.431046
17673.962600,-440.279358,229.710970,-9820.143950
17673.965150,-1531.406464,803.988394,-9934.999435
17673.967699,-1263.410333,-574.277424,-10049.854920
17673.970231,-267.996131,1703.689691,-9992.427178
17673.972764,-440.279358,842.273555,-9839.286531
17673.975296,-937.986459,-976.271621,-9877.571693
17673.977829,-267.996131,2565.105827,-9858.429112
17673.980361,-1205.982590,2239.681954,-9896.714274
17673.982894,-1071.984525,-727.418070,-9954.142016
17673.985426,-153.140646,-784.845813,-10011.569758
17673.987958,-516.849682,2105.683888,-9954.142016
17673.990491,-1014.556782,-593.420005,-9858.429112
17673.993023,-899.701298,1493.121302,-9762.716208
17673.995556,-133.998066,1914.258080,-9915.856854
17673.998088,-1110.269686,-478.564520,-10126.425243
17674.000621,612.562586,765.703232,-9973.284597
17674.003153,-918.843878,3120.240670,-9839.286531
17674.005686,-1014.556782,-3751.945837,-9801.001370
17674.008218,1167.697429,7025.327154,-9801.001370
17674.010750,-3196.810994,-5857.629725,-10279.565890
17674.013283,267.996131,-1569.691626,-9781.858789
17674.015815,4230.510357,10796.415571,-9705.288466
17674.018348,-765.703232,-3407.379382,-9973.284597
17674.020880,-4613.361973,-7446.463931,-10126.425243
17674.023413,3560.520029,9590.432981,-9839.286531
17674.025945,-114.855485,-784.845813,-9934.999435
17674.028478,-2201.396792,-7101.897477,-10088.140082
17674.031010,1856.830338,6872.186507,-9686.145885
17674.033542,-267.996131,-172.283227,-9839.286531
17674.036075,-2411.965181,-5053.641331,-9992.427178
17674.038607,535.992262,3541.377448,-10049.854920
17674.041140,650.847747,114.855485,-9954.142016
17674.043672,-669.990328,-3158.525832,-10049.854920
17674.046205,-229.710970,2163.111630,-9762.716208
17674.048737,344.566454,2641.676150,-9896.714274
17674.051269,-497.707101,-1473.978722,-10049.854920
17674.053802,-459.421939,-287.138712,-9973.284597
17674.056334,555.134843,2526.820666,-9724.431046
17674.058867,-593.420005,-1990.828403,-9762.716208
17674.061399,-574.277424,-574.277424,-9992.427178
17674.063932,287.138712,2105.683888,-10011.569758
17674.066464,-440.279358,-1837.687757,-9896.714274
17674.068997,-153.140646,-1914.258080,-9934.999435
17674.071532,-306.281293,1780.260014,-9801.001370
17674.074067,-1014.556782,-153.140646,-9839.286531
17674.076602,-57.427742,-746.560651,-9992.427178
17674.079137,440.279358,2143.969050,-9973.284597
17674.081671,-0.000000,-1071.984525,-10030.712339
17674.084206,-1244.267752,-1569.691626,-10126.425243
17674.086741,306.281293,861.416136,-9762.716208
17674.089276,-976.271621,1301.695494,-9954.142016
17674.091811,-516.849682,-4728.217458,-9992.427178
17674.094345,1684.547110,6202.196179,-9858.429112
17674.096880,-3273.381317,-3713.660675,-10030.712339
17674.099415,-631.705166,-1454.836141,-9686.145885
17674.101950,2067.398726,10202.995566,-9877.571693
17674.104485,-4555.934230,-10183.852986,-10068.997501
17674.107020,650.847747,5513.063270,-9915.856854
17674.109554,3196.810994,7063.612315,-9667.003304
17674.112089,-1167.697429,-1952.543242,-9858.429112
17674.114624,-3024.527766,-6623.332957,-10202.995566
17674.117159,899.701298,8384.450390,-9762.716208
17674.119694,-765.703232,555.134843,-9667.003304
17674.122229,-1990.828403,-4785.645200,-9934.999435
17674.124763,593.420005,4632.504554,-9877.571693
17674.127298,76.570323,1607.976787,-9781.858789
17674.129833,-2316.252277,-2833.101958,-10088.140082
17674.132368,-727.418070,2737.389054,-9915.856854
17674.134903,-76.570323,2469.392923,-9896.714274
17674.137438,-957.129040,-2105.683888,-10068.997501
17674.139972,-401.994197,38.285162,-9954.142016
17674.142507,-535.992262,2048.256146,-9915.856854
17674.145042,-708.275490,880.558717,-9915.856854
17674.147577,-1339.980656,-880.558717,-10126.425243
17674.150112,-248.853550,1875.972918,-9896.714274
17674.152647,-287.138712,1761.117434,-9839.286531
17674.155181,-746.560651,344.566454,-9858.429112
17674.157716,-401.994197,1052.841944,-9954.142016
17674.160251,-497.707101,95.712904,-9954.142016
17674.162786,-1282.552914,516.849682,-9839.286531
17674.165321,-555.134843,803.988394,-9801.001370
17674.167856,-421.136778,995.414202,-9858.429112
17674.170390,-382.851616,1301.695494,-9973.284597
17674.172927,-1244.267752,-401.994197,-9954.142016
17674.175464,-191.425808,-325.423874,-9934.999435
17674.178001,-1014.556782,3962.514226,-9954.142016
17674.180538,-1339.980656,-3713.660675,-9877.571693
17674.183074,1799.402595,5436.492947,-9762.716208
17674.185611,-1952.543242,-3292.523898,-10183.852986
17674.188148,-689.132909,-4211.367776,-9820.143950
17674.190685,3330.809059,10068.997501,-9858.429112
17674.193222,-3981.656806,-10049.854920,-10088.140082
17674.195759,-1761.117434,421.136778,-9858.429112
17674.198295,3981.656806,8805.587168,-9686.145885
17674.200832,-2373.680019,-7503.891674,-10241.280728
17674.203369,-957.129040,-1493.121302,-9973.284597
17674.205906,784.845813,4594.219392,-9801.001370
17674.208443,325.423874,1627.119368,-9877.571693
17674.210979,-1818.545176,-4670.789715,-10107.282662
17674.213516,-19.142581,1914.258080,-9858.429112
17674.216053,631.705166,1129.412267,-9820.143950
17674.218590,-440.279358,-2584.248408,-10068.997501
17674.221127,-555.134843,746.560651,-10011.569758
17674.223663,-708.275490,1071.984525,-9915.856854
17674.226200,-535.992262,-1435.693560,-9877.571693
17674.228737,57.427742,1837.687757,-9915.856854
17674.231274,-19.142581,612.562586,-9954.142016
17674.233811,-842.273555,-2947.957443,-9896.714274
17674.236347,421.136778,1856.830338,-9992.427178
17674.238884,497.707101,2354.537438,-9992.427178
17674.241421,-861.416136,-2679.961312,-9992.427178
17674.243958,-727.418070,-516.849682,-9839.286531
17674.246495,76.570323,2699.103893,-9781.858789
17674.249032,-191.425808,-1569.691626,-10049.854920
17674.251568,19.142581,669.990328,-10068.997501
17674.254105,76.570323,-95.712904,-10011.569758
17674.256642,-1359.123237,-1512.263883,-9973.284597
17674.259179,497.707101,880.558717,-9781.858789
17674.261716,-976.271621,918.843878,-9896.714274
17674.264252,-555.134843,-4364.508422,-9839.286531
17674.266789,1071.984525,5723.631659,-9934.999435
17674.269326,-1971.685822,1359.123237,-10202.995566
17674.271863,-1952.543242,-6221.338760,-10030.712339
17674.274401,2756.531635,11026.126541,-9839.286531
17674.276939,-3330.809059,-5627.918755,-9801.001370
17674.279478,-1971.685822,-765.703232,-9781.858789
17674.282016,3847.658741,9724.431046,-9628.718142
17674.284554,-3330.809059,-5532.205851,-9992.427178
17674.287093,-2354.537438,-2852.244539,-10145.567824
17674.289631,1607.976787,8537.591037,-9686.145885
17674.292169,-1454.836141,-2469.392923,-9781.858789
17674.294708,-1933.400661,-2871.387120,-9934.999435
17674.297246,1091.127106,6431.907149,-9858.429112
17674.299784,-325.423874,-784.845813,-9820.143950
17674.302323,-1837.687757,-2813.959378,-9992.427178
17674.304861,-861.416136,1780.260014,-9915.856854
17674.307399,535.992262,2909.672282,-10030.712339
17674.309938,-516.849682,-1435.693560,-9896.714274
17674.312476,-784.845813,267.996131,-9781.858789
17674.315014,-650.847747,1531.406464,-9801.001370
17674.317553,-1091.127106,-497.707101,-9954.142016
17674.320091,-1378.265818,650.847747,-9973.284597
17674.322629,-880.558717,1952.543242,-9877.571693
17674.325168,-114.855485,1512.263883,-9820.143950
17674.327706,57.427742,-19.142581,-9973.284597
17674.330244,-325.423874,382.851616,-10011.569758
17674.332783,-1416.550979,918.843878,-9781.858789
17674.335321,-1378.265818,-535.992262,-9801.001370
17674.337859,-861.416136,1263.410333,-9858.429112
17674.340398,899.701298,2392.822600,-9820.143950
17674.342936,-650.847747,-421.136778,-9992.427178
17674.345474,-287.138712,-535.992262,-9915.856854
17674.348013,-1148.554848,4077.369710,-9992.427178
17674.350551,-880.558717,-2622.533570,-9973.284597
17674.353089,516.849682,4728.217458,-9724.431046
17674.355628,-2411.965181,-5091.926493,-10107.282662
17674.358166,1339.980656,325.423874,-9667.003304
17674.360704,2373.680019,6948.756830,-9801.001370
17674.363243,-5302.494882,-11772.687192,-10126.425243
17674.365781,-4173.082614,-5781.059402,-10241.280728
17674.368319,4287.938099,9705.288466,-9915.856854
17674.370858,19.142581,-2220.539373,-9915.856854
17674.373396,-2373.680019,-6259.623922,-9992.427178
17674.375936,1301.695494,6565.905214,-9801.001370
17674.378476,-172.283227,-516.849682,-10011.569758
17674.381016,-2469.392923,-5091.926493,-10164.710405
17674.383556,76.570323,3043.670347,-9858.429112
17674.386095,1052.841944,689.132909,-9781.858789
17674.388635,-95.712904,-2392.822600,-10049.854920
17674.391175,-612.562586,746.560651,-9934.999435
17674.393715,-861.416136,459.421939,-9896.714274
17674.396255,-478.564520,-631.705166,-10107.282662
17674.398795,-995.414202,-1282.552914,-10011.569758
17674.401335,669.990328,1952.543242,-9801.001370
17674.403875,459.421939,-727.418070,-9858.429112
17674.406415,-880.558717,-2354.537438,-10107.282662
17674.408955,-287.138712,957.129040,-9992.427178
17674.411494,-535.992262,1052.841944,-9877.571693
17674.414034,-1052.841944,-2143.969050,-9858.429112
17674.416574,612.562586,248.853550,-9896.714274
17674.419114,918.843878,2833.101958,-9973.284597
17674.421654,-784.845813,-2756.531635,-10164.710405
17674.424194,-1493.121302,-1493.121302,-10088.140082
17674.426734,1014.556782,3024.527766,-9820.143950
17674.429274,516.849682,3598.805190,-9954.142016
17674.431814,-784.845813,-5857.629725,-9934.999435
17674.434353,1129.412267,4498.506488,-9743.573627
17674.436893,-2565.105827,-363.709035,-10011.569758
17674.439433,-1282.552914,-3158.525832,-9877.571693
17674.441973,1244.267752,8786.444587,-9954.142016
17674.444513,-3426.521963,-7963.313613,-10088.140082
17674.447053,727.418070,4555.934230,-9839.286531
17674.449593,2986.242605,6910.471669,-9609.575562
17674.452133,-4804.787781,-7714.460062,-10030.712339
17674.454673,-765.703232,2086.541307,-10049.854920
17674.457213,1550.549045,7063.612315,-9762.716208
17674.459752,76.570323,1761.117434,-9628.718142
17674.462292,-2354.537438,-5149.354235,-9839.286531
17674.464832,382.851616,4632.504554,-9858.429112
17674.467372,650.847747,2450.250342,-9820.143950
17674.469912,-2086.541307,-3311.666478,-10088.140082
17674.472452,-1014.556782,1875.972918,-10011.569758
17674.474992,-248.853550,2718.246474,-9647.860723
17674.477533,-535.992262,-842.273555,-9762.716208
17674.480074,-114.855485,880.558717,-9934.999435
17674.482615,-497.707101,861.416136,-10088.140082
17674.485156,-1110.269686,-287.138712,-9934.999435
17674.487697,-1071.984525,2565.105827,-10011.569758
17674.490238,-1129.412267,76.570323,-10011.569758
17674.492779,-267.996131,-1129.412267,-9934.999435
17674.495320,555.134843,1550.549045,-9801.001370
17674.497861,-1186.840010,2182.254211,-9858.429112
17674.500402,-2258.824534,-1914.258080,-10011.569758
17674.502943,-478.564520,2354.537438,-9781.858789
17674.505484,650.847747,3158.525832,-9858.429112
17674.508025,-1569.691626,-3139.383251,-10068.997501
17674.510566,555.134843,1914.258080,-9877.571693
17674.513108,-440.279358,3330.809059,-9877.571693
17674.515649,-765.703232,-2297.109696,-9877.571693
17674.518190,-1110.269686,4709.074877,-9934.999435
17674.520731,-1952.543242,-6049.055533,-10164.710405
17674.523272,38.285162,4517.649069,-9705.288466
17674.525813,3101.098090,9245.866526,-9705.288466
17674.528354,-4441.078746,-10145.567824,-9915.856854
17674.530895,-2067.398726,976.271621,-9896.714274
17674.533436,3943.371645,8690.731683,-9781.858789
17674.535977,-2373.680019,-8193.024582,-10241.280728
17674.538518,-1225.125171,-1665.404530,-9801.001370
17674.541059,2220.539373,7810.172966,-9571.290400
17674.543600,-976.271621,-4096.512291,-10011.569758
17674.546141,-2699.103893,-3905.086483,-10126.425243
17674.548682,823.130974,5245.067139,-9801.001370
17674.551223,535.992262,-459.421939,-9896.714274
17674.553764,-995.414202,-3866.801322,-10049.854920
17674.556305,-1665.404530,-1186.840010,-9801.001370
17674.558846,-287.138712,2297.109696,-9801.001370
17674.561388,229.710970,440.279358,-9954.142016
17674.563929,-708.275490,-1665.404530,-10241.280728
17674.566470,401.994197,382.851616,-9934.999435
17674.569011,842.273555,823.130974,-9647.860723
17674.571552,-880.558717,-1875.972918,-9992.427178
17674.574093,-1110.269686,248.853550,-10011.569758
17674.576634,-306.281293,1205.982590,-9877.571693
17674.579159,57.427742,-1799.402595,-9973.284597
17674.581684,-172.283227,899.701298,-9839.286531
17674.584210,-38.285162,363.709035,-9858.429112
17674.586735,-306.281293,-1875.972918,-10011.569758
17674.589260,38.285162,861.416136,-9877.571693
17674.591786,-937.986459,880.558717,-10011.569758
17674.594311,-191.425808,-3139.383251,-9934.999435
17674.596836,-57.427742,3196.810994,-9973.284597
17674.599362,-1205.982590,-4077.369710,-9954.142016
17674.601887,1493.121302,6297.909083,-9667.003304
17674.604412,-2411.965181,-803.988394,-10107.282662
17674.606938,-3139.383251,-5206.781978,-9858.429112
17674.609463,3407.379382,11964.113000,-9877.571693
17674.611988,-1627.119368,-5627.918755,-10011.569758
17674.614514,-2928.814862,-4249.652938,-10068.997501
17674.617039,2928.814862,11447.263318,-9456.434915
17674.619564,1397.408398,6125.625856,-9839.286531
17674.622090,-3196.810994,-6987.041992,-10222.138147
17674.624615,-1205.982590,1627.119368,-9992.427178
17674.627140,2029.113565,7006.184573,-9705.288466
17674.629666,-1052.841944,-3694.518094,-9973.284597
17674.632191,-2009.970984,-1320.838075,-10183.852986
17674.634716,-210.568389,5206.781978,-9724.431046
17674.637242,-229.710970,-382.851616,-9896.714274
17674.639767,-1818.545176,-1703.689691,-10049.854920
17674.642292,-918.843878,593.420005,-10088.140082
17674.644818,574.277424,2373.680019,-9686.145885
17674.647343,-880.558717,210.568389,-9839.286531
17674.649868,-1933.400661,-1091.127106,-9992.427178
17674.652394,-842.273555,-191.425808,-9934.999435
17674.654919,1263.410333,3598.805190,-9705.288466
17674.657444,-1148.554848,306.281293,-9686.145885
17674.659970,-1684.547110,-1033.699363,-9896.714274
17674.662495,210.568389,3024.527766,-10011.569758
17674.665020,-1454.836141,1205.982590,-9915.856854
17674.667546,-1225.125171,-2622.533570,-9992.427178
17674.670071,937.986459,4498.506488,-9781.858789
17674.672596,-669.990328,-957.129040,-9973.284597
17674.675122,-1339.980656,957.129040,-9954.142016
17674.677647,-2124.826469,-574.277424,-9992.427178
17674.680176,2086.541307,1818.545176,-9743.573627
17674.682705,3158.525832,7274.180704,-9839.286531
17674.685233,-3215.953574,-8671.589102,-10145.567824
17674.687762,-1454.836141,-1607.976787,-9724.431046
17674.690291,4211.367776,10872.985894,-9705.288466
17674.692819,-3560.520029,-8346.165229,-9992.427178
17674.695348,-1531.406464,-2660.818731,-10049.854920
17674.697877,3464.807125,10107.282662,-9801.001370
17674.700406,-1359.123237,-5436.492947,-10049.854920
17674.702934,-2048.256146,-4498.506488,-10126.425243
17674.705463,1186.840010,6087.340694,-9686.145885
17674.707992,-421.136778,-1110.269686,-9954.142016
17674.710520,-1761.117434,-4096.512291,-10164.710405
17674.713049,880.558717,3483.949706,-9743.573627
17674.715578,248.853550,2813.959378,-9801.001370
17674.718107,-574.277424,-1225.125171,-10011.569758
17674.720635,-1148.554848,-976.271621,-10011.569758
17674.723164,191.425808,1952.543242,-9896.714274
17674.725693,382.851616,-555.134843,-10030.712339
17674.728221,-535.992262,-1531.406464,-10145.567824
17674.730750,-363.709035,957.129040,-9781.858789
17674.733279,-612.562586,-287.138712,-9896.714274
17674.735808,-191.425808,-516.849682,-9973.284597
17674.738336,-229.710970,-153.140646,-10049.854920
17674.740865,-172.283227,535.992262,-9839.286531
17674.743394,555.134843,0.000000,-9858.429112
17674.745922,-631.705166,899.701298,-10068.997501
17674.748451,-1550.549045,-3043.670347,-10068.997501
17674.750980,421.136778,3177.668413,-9801.001370
17674.753509,114.855485,-1875.972918,-9896.714274
17674.756037,593.420005,1378.265818,-9858.429112
17674.758566,-2852.244539,-172.283227,-10107.282662
17674.761095,-1033.699363,-3235.096155,-9896.714274
17674.763623,2258.824534,9954.142016,-9877.571693
17674.766152,-3694.518094,-7752.745224,-10088.140082
17674.768681,-1110.269686,1588.834206,-9781.858789
17674.771210,4173.082614,9992.427178,-9513.862658
17674.773738,-4421.936165,-7408.178770,-10030.712339
17674.776267,-2220.539373,-1359.123237,-10011.569758
17674.778796,689.132909,6719.045861,-9934.999435
17674.781327,957.129040,4862.215523,-9647.860723
17674.783859,-2986.242605,-6546.762634,-10145.567824
17674.786390,-478.564520,2775.674216,-9934.999435
17674.788922,1493.121302,5819.344563,-9743.573627
17674.791453,-1550.549045,-4498.506488,-10126.425243
17674.793985,-1856.830338,-95.712904,-10049.854920
17674.796516,-0.000000,4039.084549,-9647.860723
17674.799048,-287.138712,-191.425808,-9820.143950
17674.801579,-1378.265818,-1684.547110,-9954.142016
17674.804111,-440.279358,2775.674216,-9820.143950
17674.806643,-0.000000,1263.410333,-9762.716208
17674.809174,-574.277424,133.998066,-9992.427178
17674.811706,-1339.980656,-114.855485,-9934.999435
17674.814237,-861.416136,2699.103893,-9877.571693
17674.816769,-153.140646,172.283227,-9801.001370
17674.819300,-382.851616,612.562586,-9973.284597
17674.821832,-727.418070,2086.541307,-9915.856854
17674.824363,-1512.263883,-2009.970984,-9992.427178
17674.826895,-172.283227,2316.252277,-9801.001370
17674.829426,-727.418070,631.705166,-9877.571693
17674.831958,497.707101,1378.265818,-9858.429112
17674.834489,-2048.256146,459.421939,-10030.712339
17674.837021,-57.427742,-3024.527766,-9820.143950
17674.839552,2699.103893,8288.737486,-9781.858789
17674.842084,535.992262,287.138712,-10145.567824
17674.844615,-4843.072942,-10968.698798,-9934.999435
17674.847147,2737.389054,11179.267187,-9628.718142
17674.849678,708.275490,555.134843,-9839.286531
17674.852210,-4096.512291,-10815.558152,-10222.138147
17674.854741,1703.689691,7714.460062,-9801.001370
17674.857273,1416.550979,3024.527766,-9762.716208
17674.859804,-2852.244539,-8480.163294,-10164.710405
17674.862336,-631.705166,2431.107762,-9781.858789
17674.864867,1473.978722,4957.928427,-9667.003304
17674.867399,-1493.121302,-5321.637462,-10030.712339
17674.869930,-880.558717,-880.558717,-10049.854920
17674.872462,-784.845813,1665.404530,-9915.856854
17674.874994,918.843878,2660.818731,-9858.429112
17674.877525,-937.986459,-1856.830338,-10011.569758
17674.880057,-937.986459,-1225.125171,-9915.856854
17674.882591,1033.699363,2584.248408,-9915.856854
17674.885125,-497.707101,-937.986459,-10068.997501
17674.887659,-1818.545176,-2277.967115,-10030.712339
17674.890194,669.990328,1646.261949,-9781.858789
17674.892728,38.285162,-516.849682,-9973.284597
17674.895262,-957.129040,-746.560651,-9954.142016
17674.897796,325.423874,1225.125171,-9896.714274
17674.900331,-1282.552914,-1186.840010,-9954.142016
17674.902865,-440.279358,-1301.695494,-9992.427178
17674.905399,133.998066,3081.955509,-9934.999435
17674.907933,76.570323,-1837.687757,-9973.284597
17674.910468,784.845813,1512.263883,-9896.714274
17674.913002,-3196.810994,-803.988394,-10107.282662
17674.915536,-957.129040,-2143.969050,-9743.573627
17674.918070,2086.541307,9322.436850,-9896.714274
17674.920605,-3885.943902,-8633.303941,-10126.425243
17674.923139,-535.992262,3388.236802,-9801.001370
17674.925673,3943.371645,9111.868461,-9494.720077
17674.928207,-4766.502619,-8059.026517,-10088.140082
17674.930742,-1665.404530,325.423874,-10030.712339
17674.933276,2507.678085,8939.585234,-9628.718142
17674.935810,746.560651,-6010.770371,-9533.005238
17674.938344,-3369.094221,-6795.616184,-10088.140082
17674.940879,-95.712904,4498.506488,-10088.140082
17674.943413,1550.549045,5206.781978,-9647.860723
17674.945947,-1875.972918,-4709.074877,-10049.854920
17674.948481,-1703.689691,880.558717,-10011.569758
17674.951016,38.285162,3560.520029,-9801.001370
17674.953550,-784.845813,-823.130974,-9781.858789
17674.956084,-1550.549045,-497.707101,-9954.142016
17674.958618,-516.849682,2239.681954,-9839.286531
17674.961153,-95.712904,1397.408398,-9896.714274
17674.963687,-995.414202,-306.281293,-10049.854920
17674.966221,-1339.980656,516.849682,-9934.999435
17674.968755,-248.853550,1473.978722,-9858.429112
17674.971290,210.568389,1627.119368,-9896.714274
17674.973824,-1875.972918,76.570323,-10030.712339
17674.976358,-708.275490,-803.988394,-9877.571693
17674.978892,287.138712,3579.662610,-9820.143950
17674.981427,-1301.695494,-1895.115499,-9915.856854
17674.983963,-1339.980656,2316.252277,-9801.001370
17674.986500,-1339.980656,-1186.840010,-9954.142016
17674.989036,2584.248408,3120.240670,-9839.286531
17674.991573,-1225.125171,727.418070,-10145.567824
17674.994110,-2737.389054,-8748.159426,-10107.282662
17674.996646,3694.518094,10624.132344,-9686.145885
17674.999183,3694.518094,-4575.076811,-9743.573627
17675.001719,-4881.358104,-10183.852986,-10107.282662
17675.004256,325.423874,1684.547110,-9954.142016
17675.006793,3617.947771,8824.729749,-9858.429112
17675.009329,-2603.390989,-7599.604578,-10241.280728
17675.011866,-1607.976787,-1627.119368,-10011.569758
17675.014402,2335.394858,7006.184573,-9724.431046
17675.016939,-1091.127106,-4249.652938,-10030.712339
17675.019476,-2373.680019,-4019.941968,-9992.427178
17675.022012,708.275490,5321.637462,-9667.003304
17675.024549,287.138712,-172.283227,-10049.854920
17675.027086,-1818.545176,-4345.365842,-10068.997501
17675.029622,459.421939,3407.379382,-9915.856854
17675.032159,1033.699363,3349.951640,-9839.286531
17675.034695,-669.990328,-2182.254211,-9934.999435
17675.037232,-1186.840010,-1282.552914,-9954.142016
17675.039769,478.564520,2143.969050,-9781.858789
17675.042305,191.425808,-1550.549045,-9934.999435
17675.044842,-803.988394,-803.988394,-9992.427178
17675.047378,-325.423874,1167.697429,-9954.142016
17675.049915,478.564520,-976.271621,-9954.142016
17675.052452,306.281293,1550.549045,-9877.571693
17675.054988,-1071.984525,-1818.545176,-9992.427178
17675.057525,153.140646,1416.550979,-9858.429112
17675.060061,-516.849682,-957.129040,-10030.712339
17675.062598,421.136778,478.564520,-9839.286531
17675.065135,401.994197,6125.625856,-9743.573627
17675.067671,-3713.660675,-6393.621987,-10088.140082
17675.070208,574.277424,4766.502619,-9781.858789
17675.072745,1646.261949,6967.899411,-9877.571693
17675.075281,-4881.358104,-10107.282662,-10279.565890
17675.077818,1359.123237,5283.352301,-10011.569758
17675.080354,2086.541307,7293.323285,-9858.429112
17675.082891,-4689.932296,-9820.143950,-10164.710405
17675.085429,-421.136778,3311.666478,-9877.571693
17675.087968,1818.545176,8193.024582,-9609.575562
17675.090506,-2967.100024,-6833.901346,-10126.425243
17675.093045,-1512.263883,287.138712,-10145.567824
17675.095583,459.421939,5761.916821,-9915.856854
17675.098122,555.134843,2852.244539,-9724.431046
17675.100660,-1416.550979,-3981.656806,-9915.856854
17675.103199,-976.271621,1646.261949,-9839.286531
17675.105737,-0.000000,3503.092286,-9781.858789
17675.108276,-1225.125171,-2029.113565,-9954.142016
17675.110814,-1110.269686,76.570323,-9973.284597
17675.113353,229.710970,3369.094221,-9858.429112
17675.115891,-1205.982590,191.425808,-9858.429112
17675.118429,-899.701298,803.988394,-9915.856854
17675.120968,153.140646,1895.115499,-9915.856854
17675.123506,-1378.265818,-248.853550,-9992.427178
17675.126045,-1359.123237,-2469.392923,-9954.142016
17675.128583,-248.853550,3560.520029,-9839.286531
17675.131122,-574.277424,-555.134843,-9877.571693
17675.133660,-708.275490,1397.408398,-9839.286531
17675.136199,-2009.970984,-1129.412267,-9992.427178
17675.138737,2258.824534,2239.681954,-9686.145885
17675.141276,19.142581,3905.086483,-10011.569758
17675.143814,-4345.365842,-11370.692995,-10126.425243
17675.146353,2852.244539,8652.446522,-9801.001370
17675.148891,1512.263883,1052.841944,-9839.286531
17675.151429,-5455.635528,-10892.128475,-10336.993632
17675.153968,2699.103893,7637.889739,-9781.858789
17675.156506,2431.107762,4211.367776,-9781.858789
17675.159045,-1301.695494,-4785.645200,-10222.138147
17675.161583,-2737.389054,-5761.916821,-10049.854920
17675.164122,2143.969050,7695.317482,-9686.145885
17675.166660,95.712904,-1569.691626,-9915.856854
17675.169199,-2833.101958,-6106.483275,-10030.712339
17675.171737,497.707101,4479.363907,-9628.718142
17675.174276,516.849682,1684.547110,-9801.001370
17675.176814,-1493.121302,-3885.943902,-10049.854920
17675.179353,-325.423874,2105.683888,-9896.714274
17675.181891,325.423874,1033.699363,-9973.284597
17675.184429,-823.130974,-2507.678085,-10011.569758
17675.186953,-95.712904,976.271621,-9915.856854
17675.189476,248.853550,880.558717,-9839.286531
17675.192000,-861.416136,-1569.691626,-9954.142016
17675.194523,-440.279358,248.853550,-9915.856854
17675.197046,1014.556782,1148.554848,-9877.571693
17675.199570,-842.273555,-727.418070,-10049.854920
17675.202093,-823.130974,-2182.254211,-9934.999435
17675.204616,497.707101,4364.508422,-9877.571693
17675.207140,-95.712904,-3215.953574,-10088.140082
17675.209663,95.712904,1531.406464,-9973.284597
17675.212187,-3464.807125,-1244.267752,-9896.714274
17675.214710,-153.140646,-344.566454,-9609.575562
17675.217233,1282.552914,7350.751027,-9954.142016
17675.219757,-4211.367776,-9131.011042,-10145.567824
17675.222280,-3885.943902,-4326.223261,-10011.569758
17675.224803,4173.082614,10796.415571,-9571.290400
17675.227327,-1875.972918,-2507.678085,-9839.286531
17675.229850,-4249.652938,-7312.465866,-10202.995566
17675.232374,2335.394858,9571.290400,-9801.001370
17675.234897,-440.279358,-306.281293,-9647.860723
17675.237420,-3426.521963,-6297.909083,-9915.856854
17675.239944,1263.410333,8078.169098,-9801.001370
17675.242467,823.130974,2699.103893,-9609.575562
17675.244991,-2928.814862,-5283.352301,-10107.282662
17675.247514,-593.420005,2928.814862,-9724.431046
17675.250037,708.275490,4326.223261,-9667.003304
17675.252561,-153.140646,191.425808,-9934.999435
17675.255084,-2354.537438,-3522.234867,-10164.710405
17675.257607,-57.427742,4249.652938,-9839.286531
17675.260131,133.998066,2775.674216,-9686.145885
17675.262654,-1799.402595,-1875.972918,-9954.142016
17675.265178,-344.566454,1454.836141,-10049.854920
17675.267701,153.140646,2201.396792,-9954.142016
17675.270224,-1014.556782,363.709035,-9858.429112
17675.272748,-1761.117434,-1129.412267,-10011.569758
17675.275271,-287.138712,1971.685822,-9877.571693
17675.277794,-287.138712,382.851616,-9992.427178
17675.280318,325.423874,1665.404530,-9915.856854
17675.282841,-2163.111630,-459.421939,-9954.142016
17675.285365,-2488.535504,-6527.620053,-10241.280728
17675.287892,4000.799387,7714.460062,-9954.142016
17675.290419,-248.853550,-1722.832272,-10260.423309
17675.292946,-4421.936165,-10317.851051,-10011.569758
17675.295473,3771.088418,11753.544611,-9686.145885
17675.298001,-382.851616,-1014.556782,-9743.573627
17675.300528,-4345.365842,-10451.849117,-10145.567824
17675.303055,2852.244539,9437.292334,-9647.860723
17675.305582,976.271621,2143.969050,-10011.569758
17675.308109,-3407.379382,-9724.431046,-10241.280728
17675.310636,899.701298,5493.920690,-9647.860723
17675.313164,1665.404530,3503.092286,-9667.003304
17675.315691,-229.710970,-7561.319416,-9839.286531
17675.318218,-2029.113565,-3560.520029,-9858.429112
17675.320745,-114.855485,4804.787781,-9781.858789
17675.323272,133.998066,-114.855485,-10107.282662
17675.325800,-689.132909,-2584.248408,-10183.852986
17675.328327,210.568389,1244.267752,-9934.999435
17675.330854,344.566454,344.566454,-9762.716208
17675.333381,-631.705166,-2029.113565,-9992.427178
17675.335908,-1493.121302,-612.562586,-9915.856854
17675.338436,-248.853550,1186.840010,-9743.573627
17675.340963,918.843878,0.000000,-9934.999435
17675.343490,-1071.984525,-1148.554848,-10068.997501
17675.346017,-287.138712,-1033.699363,-9915.856854
17675.348544,133.998066,2909.672282,-9628.718142
17675.351072,114.855485,-976.271621,-9954.142016
17675.353599,153.140646,1225.125171,-9992.427178
17675.356126,-3732.803256,-2450.250342,-9992.427178
17675.358653,38.285162,-650.847747,-9590.432981
17675.361180,1952.543242,8709.874264,-9896.714274
17675.363708,-4402.793584,-9628.718142,-10183.852986
17675.366235,-306.281293,5168.496816,-9724.431046
17675.368762,3503.092286,8767.302006,-9552.147819
17675.371289,-4957.928427,-9207.581365,-10068.997501
17675.373816,-957.129040,1856.830338,-9934.999435
17675.376344,2335.394858,9379.864592,-9628.718142
17675.378871,-95.712904,-8250.452325,-9590.432981
17675.381398,-3369.094221,-6585.047795,-10011.569758
17675.383925,1033.699363,7810.172966,-9877.571693
17675.386452,727.418070,3043.670347,-9762.716208
17675.388983,-2660.818731,-5015.356170,-10260.423309
17675.391513,-363.709035,2048.256146,-9954.142016
17675.394044,1129.412267,4651.647134,-9494.720077
17675.396574,-1818.545176,-3120.240670,-9915.856854
17675.399105,-2469.392923,-842.273555,-10068.997501
17675.401635,363.709035,5895.914886,-9839.286531
17675.404165,-440.279358,650.847747,-9877.571693
17675.406696,-1473.978722,-2182.254211,-10068.997501
17675.409226,803.988394,3388.236802,-10011.569758
17675.411757,-497.707101,4115.654872,-9858.429112
17675.414287,-1665.404530,-2163.111630,-9839.286531
17675.416818,-1014.556782,1741.974853,-9877.571693
17675.419348,-57.427742,612.562586,-9877.571693
17675.421878,-1550.549045,1091.127106,-10030.712339
17675.424409,-1627.119368,-2986.242605,-9954.142016
17675.426939,3273.381317,6451.049730,-9820.143950
17675.429470,-1703.689691,-1799.402595,-10241.280728
17675.432000,-2239.681954,-7255.038123,-9915.856854
17675.434531,4039.084549,12327.822035,-9647.860723
17675.437061,-2143.969050,-8212.167163,-9973.284597
17675.439592,-4211.367776,-5742.774240,-10164.710405
17675.442122,-1875.972918,11504.691061,-9781.858789
17675.444652,3369.094221,7389.036189,-9686.145885
17675.447183,-3292.523898,-9934.999435,-10241.280728
17675.449713,-478.564520,2584.248408,-9934.999435
17675.452244,2163.111630,6068.198114,-9801.001370
17675.454774,-2182.254211,-8078.169098,-10068.997501
17675.457305,-861.416136,-344.566454,-9973.284597
17675.459835,1435.693560,5225.924558,-9686.145885
17675.462366,-880.558717,-3771.088418,-10030.712339
17675.464896,-727.418070,-842.273555,-9820.143950
17675.467426,1148.554848,4651.647134,-9781.858789
17675.469957,-535.992262,-2737.389054,-9992.427178
17675.472487,-842.273555,-2335.394858,-10011.569758
17675.475018,-95.712904,937.986459,-10049.854920
17675.477548,-440.279358,1454.836141,-9762.716208
17675.480079,-1569.691626,-2545.963246,-9934.999435
17675.482609,1014.556782,612.562586,-9973.284597
17675.485139,803.988394,2316.252277,-9992.427178
17675.487670,-995.414202,-4307.080680,-10183.852986
17675.490203,-267.996131,2928.814862,-9896.714274
17675.492736,440.279358,-57.427742,-9877.571693
17675.495269,229.710970,1033.699363,-10011.569758
17675.497802,-3866.801322,-2775.674216,-10107.282662
17675.500335,57.427742,-248.853550,-9705.288466
17675.502868,1895.115499,7982.456194,-9877.571693
17675.505401,-4287.938099,-9360.722011,-9877.571693
17675.507934,-4479.363907,-5245.067139,-9954.142016
17675.510467,3885.943902,11006.983960,-9590.432981
17675.513000,-1186.840010,-1799.402595,-9915.856854
17675.515533,-4326.223261,-7925.028451,-10279.565890
17675.518066,1703.689691,9341.579430,-9762.716208
17675.520600,-344.566454,-459.421939,-9571.290400
17675.523133,-2986.242605,-5742.774240,-10049.854920
17675.525666,1186.840010,8173.882002,-9896.714274
17675.528199,478.564520,2105.683888,-9609.575562
17675.530732,-2488.535504,-4249.652938,-9954.142016
17675.533265,-937.986459,2316.252277,-9973.284597
17675.535798,593.420005,3388.236802,-9915.856854
17675.538331,76.570323,1071.984525,-9686.145885
17675.540864,-2297.109696,-2239.681954,-10088.140082
17675.543397,-1244.267752,2852.244539,-9915.856854
17675.545930,995.414202,3809.373579,-9686.145885
17675.548463,-593.420005,-1550.549045,-10011.569758
17675.550996,-1722.832272,-401.994197,-10126.425243
17675.553529,535.992262,3579.662610,-9839.286531
17675.556062,-957.129040,248.853550,-9839.286531
17675.558595,-1703.689691,-1741.974853,-10030.712339
17675.561128,-516.849682,2277.967115,-9973.284597
17675.563661,2143.969050,2239.681954,-9858.429112
17675.566194,-2086.541307,267.996131,-10183.852986
17675.568727,-2297.109696,-5876.772306,-10279.565890
17675.571260,1799.402595,3407.379382,-9609.575562
17675.573793,3158.525832,7408.178770,-9934.999435
17675.576327,-5379.065205,-14433.505923,-10088.140082
17675.578860,191.425808,5589.633594,-9781.858789
17675.581393,3024.527766,7733.602643,-9705.288466
17675.583926,-4536.791650,-12500.105262,-10394.421374
17675.586459,95.712904,2105.683888,-9858.429112
17675.588992,2871.387120,9322.436850,-9628.718142
17675.591528,-2469.392923,-8652.446522,-10088.140082
17675.594063,-1359.123237,-287.138712,-9934.999435
17675.596599,2411.965181,6585.047795,-9762.716208
17675.599135,-1818.545176,-5570.491013,-10068.997501
17675.601671,-1703.689691,-5551.348432,-10049.854920
17675.604207,19.142581,2833.101958,-9762.716208
17675.606742,1607.976787,3407.379382,-9820.143950
17675.609278,-1339.980656,-4728.217458,-9992.427178
17675.611814,-421.136778,-248.853550,-9934.999435
17675.614350,1110.269686,2737.389054,-9877.571693
17675.616885,-1397.408398,-2469.392923,-9992.427178
17675.619421,-1627.119368,-765.703232,-9877.571693
17675.621957,1301.695494,1110.269686,-9839.286531
17675.624493,861.416136,1493.121302,-10011.569758
17675.627029,-765.703232,-3120.240670,-10145.567824
17675.629564,-535.992262,1914.258080,-9877.571693
17675.632100,-1473.978722,-344.566454,-9877.571693
17675.634636,1205.982590,555.134843,-9686.145885
17675.637172,-842.273555,3713.660675,-10049.854920
17675.639708,-3330.809059,-8173.882002,-10107.282662
17675.642243,2584.248408,9399.007173,-9686.145885
17675.644779,-19.142581,2775.674216,-9934.999435
17675.647315,-5570.491013,-8920.442653,-10145.567824
17675.649851,2775.674216,9418.149754,-9896.714274
17675.652387,650.847747,2565.105827,-10011.569758
17675.654922,-5245.067139,-10298.708470,-10298.708470
17675.657458,765.703232,7542.176835,-9743.573627
17675.659994,861.416136,3637.090352,-9513.862658
17675.662530,-3349.951640,-7427.321350,-10107.282662
17675.665065,-2297.109696,-2603.390989,-10145.567824
17675.667601,1990.828403,7829.315547,-9533.005238
17675.670137,-631.705166,-899.701298,-9801.001370
17675.672673,-2431.107762,-3464.807125,-10222.138147
17675.675209,-57.427742,4383.651003,-9877.571693
17675.677744,19.142581,1301.695494,-9686.145885
17675.680280,-2105.683888,-2258.824534,-10088.140082
17675.682816,-727.418070,3560.520029,-9915.856854
17675.685352,478.564520,2009.970984,-9705.288466
17675.687888,-823.130974,-1493.121302,-9877.571693
17675.690423,-765.703232,2373.680019,-9973.284597
17675.692961,-1339.980656,-344.566454,-10011.569758
17675.695499,-1052.841944,784.845813,-9858.429112
17675.698037,-803.988394,784.845813,-9839.286531
17675.700575,1397.408398,2545.963246,-9915.856854
17675.703113,-1990.828403,-631.705166,-10145.567824
17675.705651,-746.560651,-3866.801322,-10030.712339
17675.708188,2737.389054,9533.005238,-9686.145885
17675.710726,-2928.814862,-8518.448456,-10068.997501
17675.713264,-1397.408398,-2641.676150,-9896.714274
17675.715802,4479.363907,10145.567824,-9705.288466
17675.718340,-3522.234867,-7829.315547,-9915.856854
17675.720878,-1665.404530,-3024.527766,-9896.714274
17675.723415,4058.227130,10681.560086,-9858.429112
17675.725953,-1244.267752,-5704.489078,-10145.567824
17675.728491,-2794.816797,-8709.874264,-10183.852986
17675.731029,57.427742,3560.520029,-9877.571693
17675.733567,1416.550979,4096.512291,-9743.573627
17675.736105,-2239.681954,-6623.332957,-10413.563955
17675.738643,-995.414202,19.142581,-10126.425243
17675.741180,918.843878,4211.367776,-9934.999435
17675.743718,-612.562586,-3177.668413,-10107.282662
17675.746256,-574.277424,-1110.269686,-10088.140082
17675.748794,1186.840010,2756.531635,-9839.286531
17675.751332,-593.420005,-2833.101958,-9954.142016
17675.753870,-1301.695494,-689.132909,-9992.427178
17675.756408,-95.712904,1952.543242,-9839.286531
17675.758945,-497.707101,-2890.529701,-9877.571693
17675.761483,114.855485,-1052.841944,-9915.856854
17675.764021,210.568389,2220.539373,-9973.284597
17675.766559,-478.564520,-1435.693560,-9896.714274
17675.769097,-2124.826469,-516.849682,-10030.712339
17675.771635,631.705166,-574.277424,-9858.429112
17675.774172,1339.980656,6757.331022,-9724.431046
17675.776710,-4211.367776,-7829.315547,-10011.569758
17675.779248,-267.996131,3790.230998,-9628.718142
17675.781786,2411.965181,9131.011042,-9839.286531
17675.784324,-4804.787781,-10030.712339,-10068.997501
17675.786862,574.277424,3694.518094,-10202.995566
17675.789400,2392.822600,8882.157491,-9839.286531
17675.791937,-1205.982590,-708.275490,-9801.001370
17675.794461,-3426.521963,-7867.600709,-10068.997501
17675.796984,1167.697429,8518.448456,-9858.429112
17675.799507,57.427742,267.996131,-9839.286531
17675.802030,-3024.527766,-5417.350366,-10222.138147
17675.804553,765.703232,5532.205851,-9934.999435
17675.807076,1110.269686,2967.100024,-9762.716208
17675.809599,-1531.406464,-3847.658741,-10030.712339
17675.812122,-1473.978722,1435.693560,-9858.429112
17675.814645,497.707101,4804.787781,-9628.718142
17675.817169,-1473.978722,-1512.263883,-9954.142016
17675.819692,-1435.693560,-631.705166,-10030.712339
17675.822215,1148.554848,4402.793584,-9858.429112
17675.824738,95.712904,3885.943902,-9667.003304
17675.827261,-2048.256146,-3158.525832,-10068.997501
17675.829784,-1148.554848,1780.260014,-9954.142016
17675.832307,191.425808,1722.832272,-9839.286531
17675.834830,-976.271621,1071.984525,-9801.001370
17675.837353,-2297.109696,-3751.945837,-10068.997501
17675.839876,3024.527766,4900.500685,-9762.716208
17675.842400,-708.275490,1818.545176,-10088.140082
17675.844923,-3617.947771,-10279.565890,-9992.427178
17675.847446,3771.088418,11121.839445,-9647.860723
17675.849969,344.566454,-2775.674216,-9973.284597
17675.852492,-5551.348432,-9896.714274,-10317.851051
17675.855015,-669.990328,344.566454,-9820.143950
17675.857538,4192.225195,10470.991698,-9839.286531
17675.860061,-2507.678085,-8518.448456,-10222.138147
17675.862584,-2182.254211,-2009.970984,-10049.854920
17675.865108,2488.535504,8518.448456,-9820.143950
17675.867631,-1110.269686,-5608.776174,-9934.999435
17675.870154,-1761.117434,-3713.660675,-10030.712339
17675.872677,1129.412267,5915.057467,-9705.288466
17675.875200,-669.990328,-1531.406464,-9839.286531
17675.877723,-1607.976787,-3694.518094,-9954.142016
17675.880246,1225.125171,4287.938099,-9839.286531
17675.882769,631.705166,-1378.265818,-9973.284597
17675.885292,-1550.549045,-3579.662610,-9992.427178
17675.887815,-1339.980656,-19.142581,-9973.284597
17675.890339,823.130974,1550.549045,-9877.571693
17675.892862,-899.701298,-1722.832272,-9954.142016
17675.895389,-421.136778,-1627.119368,-9934.999435
17675.897916,153.140646,2947.957443,-9877.571693
17675.900443,287.138712,-1741.974853,-9973.284597
17675.902970,-1818.545176,325.423874,-10068.997501
17675.905497,-899.701298,-2392.822600,-9839.286531
17675.908024,2392.822600,7044.469734,-9628.718142
17675.910551,-3254.238736,-3847.658741,-10068.997501
17675.913079,-2622.533570,-3005.385186,-9686.145885
17675.915606,3158.525832,12098.111066,-9762.716208
17675.918133,1818.545176,4192.225195,-9686.145885
17675.920660,-4632.504554,-9437.292334,-10260.423309
17675.923187,1493.121302,7714.460062,-9858.429112
17675.925714,784.845813,5685.346498,-9781.858789
17675.928241,-3732.803256,-9379.864592,-10279.565890
17675.930768,-248.853550,4498.506488,-10126.425243
17675.933296,1205.982590,5015.356170,-9915.856854
17675.935823,-3254.238736,-5781.059402,-10030.712339
17675.938350,-401.994197,2545.963246,-10088.140082
17675.940877,1225.125171,5111.069074,-9992.427178
17675.943404,-1607.976787,-3885.943902,-9973.284597
17675.945931,-1397.408398,516.849682,-9801.001370
17675.948458,612.562586,5857.629725,-9896.714274
17675.950985,95.712904,1952.543242,-9858.429112
17675.953512,-1225.125171,-3177.668413,-10011.569758
17675.956040,-746.560651,4000.799387,-9820.143950
17675.958567,-114.855485,937.986459,-9781.858789
17675.961094,-1110.269686,-344.566454,-9954.142016
17675.963621,-325.423874,1167.697429,-10011.569758
17675.966148,-1856.830338,861.416136,-9915.856854
17675.968675,421.136778,-995.414202,-9724.431046
17675.971202,784.845813,6317.051664,-9858.429112
17675.973729,-3809.373579,-7963.313613,-10260.423309
17675.976260,1933.400661,2565.105827,-9686.145885
17675.978790,2947.957443,6508.477472,-9877.571693
17675.981320,-1856.830338,-6661.618118,-9915.856854
17675.983851,-4249.652938,-6317.051664,-10126.425243
17675.986381,3503.092286,10834.700733,-9667.003304
17675.988911,-1110.269686,-4670.789715,-10068.997501
17675.991442,-2335.394858,-7503.891674,-10145.567824
17675.993972,2335.394858,9762.716208,-9571.290400
17675.996503,-133.998066,-1684.547110,-9762.716208
17675.999033,-2852.244539,-6297.909083,-9915.856854
17676.001563,1435.693560,6163.911018,-9647.860723
17676.004094,-0.000000,-172.283227,-9705.288466
17676.006624,-1684.547110,-5379.065205,-10068.997501
17676.009154,555.134843,3617.947771,-9934.999435
17676.011685,995.414202,1359.123237,-9992.427178
17676.014215,-267.996131,-2967.100024,-10011.569758
17676.016745,-1186.840010,-1818.545176,-9839.286531
17676.019276,229.710970,2890.529701,-9801.001370
17676.021806,421.136778,-2182.254211,-9992.427178
17676.024336,-1014.556782,-689.132909,-9973.284597
17676.026867,-248.853550,-19.142581,-9915.856854
17676.029397,-344.566454,1225.125171,-9954.142016
17676.031928,727.418070,-1205.982590,-10049.854920
17676.034458,-1091.127106,1722.832272,-10145.567824
17676.036988,-2316.252277,-4804.787781,-9973.284597
17676.039519,2392.822600,7331.608446,-9552.147819
17676.042049,-2029.113565,19.142581,-10164.710405
17676.044579,-4785.645200,-10604.989763,-10145.567824
17676.047110,153.140646,5474.778109,-9858.429112
17676.049640,3751.945837,9571.290400,-9494.720077
17676.052170,-4460.221326,-10317.851051,-10107.282662
17676.054701,-344.566454,3541.377448,-9877.571693
17676.057231,1971.685822,9781.858789,-9628.718142
17676.059761,-3503.092286,-9035.298138,-10126.425243
17676.062292,-1167.697429,1071.984525,-10202.995566
17676.064822,2143.969050,8059.026517,-9781.858789
17676.067353,-2679.961312,-5493.920690,-9839.286531
17676.069883,-1741.974853,631.705166,-9973.284597
17676.072413,229.710970,5321.637462,-10107.282662
17676.074944,-1186.840010,-2450.250342,-10126.425243
17676.077478,-1435.693560,-1990.828403,-9839.286531
17676.080011,-440.279358,2756.531635,-9801.001370
17676.082545,-191.425808,1454.836141,-9915.856854
17676.085078,-1473.978722,-593.420005,-9934.999435
17676.087612,-478.564520,2641.676150,-9934.999435
17676.090146,-478.564520,440.279358,-9992.427178
17676.092679,-880.558717,-287.138712,-9915.856854
17676.095213,-535.992262,899.701298,-9896.714274
17676.097747,459.421939,2947.957443,-9724.431046
17676.100280,-2852.244539,-3005.385186,-10068.997501
17676.102814,823.130974,-210.568389,-9801.001370
17676.105348,1569.691626,7925.028451,-9877.571693
17676.107881,-612.562586,-12614.960747,-10068.997501
17676.110415,-3388.236802,-8154.739421,-9954.142016
17676.112949,4441.078746,12404.392358,-9647.860723
17676.115482,-1952.543242,-3675.375514,-9801.001370
17676.118016,-3196.810994,-8097.311678,-10030.712339
17676.120550,4421.936165,11140.982026,-9839.286531
17676.123083,325.423874,-1952.543242,-9896.714274
17676.125617,-3847.658741,-8595.018779,-10030.712339
17676.128151,1263.410333,8193.024582,-9647.860723
17676.130684,861.416136,0.000000,-10011.569758
17676.133218,-1990.828403,-6297.909083,-10222.138147
17676.135752,401.994197,3215.953574,-9839.286531
17676.138285,765.703232,727.418070,-9858.429112
17676.140819,-306.281293,-2545.963246,-10011.569758
17676.143353,-803.988394,-574.277424,-10068.997501
17676.145886,-765.703232,899.701298,-9877.571693
17676.148420,-172.283227,-1205.982590,-9915.856854
17676.150953,1071.984525,-114.855485,-9954.142016
17676.153487,-899.701298,-114.855485,-9992.427178
17676.156021,-995.414202,-2756.531635,-9934.999435
17676.158554,-38.285162,2947.957443,-9934.999435
17676.161088,784.845813,-727.418070,-10030.712339
17676.163622,-957.129040,248.853550,-10183.852986
17676.166155,-2067.398726,-3809.373579,-9915.856854
17676.168689,2239.681954,7331.608446,-9552.147819
17676.171223,-1646.261949,-210.568389,-9934.999435
17676.173756,-4670.789715,-10298.708470,-10126.425243
17676.176290,-210.568389,5168.496816,-9743.573627
17676.178826,3617.947771,9188.438784,-9494.720077
17676.181363,-3828.516160,-9973.284597,-10183.852986
17676.183899,-440.279358,3407.379382,-9954.142016
17676.186435,1454.836141,9092.725880,-9667.003304
17676.188972,-3503.092286,-8116.454259,-10088.140082
17676.191508,-861.416136,1225.125171,-10164.710405
17676.194044,2182.254211,6872.186507,-9915.856854
17676.196580,-1301.695494,-4555.934230,-9877.571693
17676.199117,-459.421939,1569.691626,-9973.284597
17676.201653,-459.421939,4153.940034,-10068.997501
17676.204189,-1148.554848,516.849682,-9839.286531
17676.206726,-650.847747,-76.570323,-9877.571693
17676.209262,-0.000000,2526.820666,-9781.858789
17676.211798,-976.271621,-210.568389,-9973.284597
17676.214335,-1339.980656,1435.693560,-10011.569758
17676.216871,-440.279358,1627.119368,-9839.286531
17676.219407,-535.992262,689.132909,-9915.856854
17676.221943,95.712904,133.998066,-9992.427178
17676.224480,-1818.545176,1301.695494,-9992.427178
17676.227016,-38.285162,-746.560651,-9705.288466
17676.229552,440.279358,5723.631659,-9781.858789
17676.232089,-3790.230998,-7771.887805,-10356.136213
17676.234625,2220.539373,3081.955509,-9801.001370
17676.237161,4613.361973,11332.407834,-9647.860723
17676.239698,-1933.400661,-7044.469734,-9877.571693
17676.242234,-4345.365842,-5379.065205,-10107.282662
17676.244770,3043.670347,11006.983960,-9762.716208
17676.247306,-1339.980656,-5608.776174,-10126.425243
17676.249843,-1646.261949,-6738.188442,-10202.995566
17676.252379,2775.674216,9609.575562,-9590.432981
17676.254915,-440.279358,-2316.252277,-9628.718142
17676.257452,-2909.672282,-5379.065205,-10030.712339
17676.259988,1378.265818,5704.489078,-9858.429112
17676.262524,516.849682,612.562586,-9781.858789
17676.265061,-1186.840010,-4747.360038,-9915.856854
17676.267597,-861.416136,-2009.970984,-9992.427178
17676.270133,229.710970,2373.680019,-9858.429112
17676.272669,-535.992262,-689.132909,-9934.999435
17676.275206,-1148.554848,-1895.115499,-9973.284597
17676.277742,842.273555,363.709035,-9877.571693
17676.280264,-114.855485,-229.710970,-9954.142016
17676.282786,-995.414202,-1952.543242,-9992.427178
17676.285308,-746.560651,1512.263883,-9781.858789
17676.287830,727.418070,210.568389,-9801.001370
17676.290352,-1244.267752,38.285162,-10241.280728
17676.292874,-803.988394,-3503.092286,-10049.854920
17676.295396,2469.392923,8078.169098,-9533.005238
17676.297918,-3656.232933,-3828.516160,-9839.286531
17676.300440,-4977.071008,-10049.854920,-10241.280728
17676.302962,1320.838075,9169.296203,-9954.142016
17676.305484,1971.685822,4058.227130,-9609.575562
17676.308006,-3426.521963,-9207.581365,-10183.852986
17676.310528,1301.695494,8422.735552,-9896.714274
17676.313050,-593.420005,4000.799387,-9858.429112
17676.315572,-3751.945837,-8327.022648,-10241.280728
17676.318094,593.420005,5800.201982,-10107.282662
17676.320616,1263.410333,2411.965181,-9858.429112
17676.323138,-2067.398726,-4670.789715,-9934.999435
17676.325660,-880.558717,3101.098090,-9973.284597
17676.328182,-650.847747,2488.535504,-9992.427178
17676.330704,-784.845813,689.132909,-9877.571693
17676.333226,-823.130974,-76.570323,-9781.858789
17676.335748,-459.421939,1588.834206,-9858.429112
17676.338270,-344.566454,1339.980656,-9934.999435
17676.340792,-1205.982590,1799.402595,-9801.001370
17676.343314,-1493.121302,-421.136778,-9934.999435
17676.345836,-401.994197,1225.125171,-9973.284597
17676.348358,459.421939,995.414202,-9877.571693
17676.350880,-1856.830338,1263.410333,-9973.284597
17676.353402,-2431.107762,-4000.799387,-9896.714274
17676.355924,3445.664544,7063.612315,-9858.429112
17676.358446,-1856.830338,-1837.687757,-10336.993632
17676.360968,-2239.681954,-8403.592971,-10145.567824
17676.363490,1761.117434,5379.065205,-9820.143950
17676.366012,3732.803256,6144.768437,-9801.001370
17676.368534,-5704.489078,-12098.111066,-10260.423309
17676.371056,650.847747,4938.785846,-9973.284597
17676.373578,2986.242605,6642.475538,-9954.142016
17676.376100,-3120.240670,-11045.269122,-10394.421374
17676.378622,-191.425808,2297.109696,-9877.571693
17676.381148,2086.541307,6336.194245,-9571.290400
17676.383674,-1799.402595,-7006.184573,-9973.284597
17676.386201,-1148.554848,-133.998066,-10068.997501
17676.388727,727.418070,4153.940034,-9609.575562
17676.391253,325.423874,-1550.549045,-9915.856854
17676.393780,-459.421939,-3177.668413,-10088.140082
17676.396306,-1473.978722,-497.707101,-9934.999435
17676.398832,-0.000000,2009.970984,-9781.858789
17676.401359,229.710970,-976.271621,-9820.143950
17676.403885,-1052.841944,-2794.816797,-10107.282662
17676.406411,172.283227,957.129040,-9877.571693
17676.408938,191.425808,689.132909,-9858.429112
17676.411464,-842.273555,-574.277424,-9858.429112
17676.413990,-1703.689691,-1110.269686,-10088.140082
17676.416517,2488.535504,2699.103893,-9743.573627
17676.419043,-1167.697429,2603.390989,-10126.425243
17676.421569,-3503.092286,-8767.302006,-10126.425243
17676.424096,2526.820666,11619.546546,-9781.858789
17676.426622,3081.955509,10892.128475,-9839.286531
17676.429148,-4192.225195,-9322.436850,-10164.710405
17676.431675,19.142581,1071.984525,-10183.852986
17676.434201,2086.541307,9513.862658,-9839.286531
17676.436727,-4364.508422,-7771.887805,-9915.856854
17676.439254,-1454.836141,1416.550979,-9915.856854
17676.441780,1684.547110,7523.034254,-9839.286531
17676.444306,-1550.549045,-4689.932296,-10030.712339
17676.446833,-1378.265818,325.423874,-10126.425243
17676.449359,-38.285162,3503.092286,-9762.716208
17676.451885,-38.285162,401.994197,-10049.854920
17676.454412,-1397.408398,38.285162,-10030.712339
17676.456938,-1378.265818,-76.570323,-10011.569758
17676.459464,-363.709035,803.988394,-9781.858789
17676.461990,306.281293,2928.814862,-9781.858789
17676.464517,-1665.404530,937.986459,-9839.286531
17676.467043,-1722.832272,-1588.834206,-9934.999435
17676.469569,76.570323,3483.949706,-9877.571693
17676.472096,-210.568389,478.564520,-9896.714274
17676.474622,-1914.258080,95.712904,-10011.569758
17676.477148,-1990.828403,-2928.814862,-9877.571693
17676.479675,3388.236802,6259.623922,-9743.573627
17676.482188,-1320.838075,-957.129040,-10260.423309
17676.484702,-2718.246474,-9226.723946,-10049.854920
17676.487216,4613.361973,12059.825904,-9801.001370
17676.489729,4115.654872,7542.176835,-9647.860723
17676.492243,-5417.350366,-11657.831707,-10068.997501
17676.494756,229.710970,3522.234867,-9973.284597
17676.497270,3273.381317,7714.460062,-9839.286531
17676.499784,-2756.531635,-10490.134278,-10317.851051
17676.502297,-823.130974,535.992262,-10068.997501
17676.504811,1990.828403,6948.756830,-9724.431046
17676.507324,-1320.838075,-5474.778109,-9973.284597
17676.509838,-1359.123237,-1205.982590,-10145.567824
17676.512352,669.990328,3254.238736,-9954.142016
17676.514865,1263.410333,-459.421939,-9934.999435
17676.517379,-574.277424,-2220.539373,-10068.997501
17676.519892,-1531.406464,-229.710970,-10011.569758
17676.522406,-746.560651,57.427742,-9743.573627
17676.524920,1339.980656,229.710970,-9820.143950
17676.527433,-842.273555,-669.990328,-10030.712339
17676.529947,-995.414202,-3196.810994,-10049.854920
17676.532460,114.855485,2737.389054,-9915.856854
17676.534974,1110.269686,133.998066,-9858.429112
17676.537488,-1416.550979,-382.851616,-10202.995566
17676.540001,-1473.978722,-3847.658741,-9973.284597
17676.542515,2775.674216,8939.585234,-9552.147819
17676.545028,-2890.529701,-2354.537438,-10068.997501
17676.547542,-4039.084549,-6412.764568,-9954.142016
17676.550056,3771.088418,13610.374949,-9915.856854
17676.552569,3349.951640,8327.022648,-9609.575562
17676.555083,-4039.084549,-10853.843314,-10241.280728
17676.557596,306.281293,5761.916821,-9934.999435
17676.560110,784.845813,7714.460062,-9705.288466
17676.562624,-3675.375514,-8116.454259,-10202.995566
17676.565137,-746.560651,2182.254211,-10241.280728
17676.567651,1493.121302,5264.209720,-9781.858789
17676.570164,-1320.838075,-3924.229064,-9762.716208
17676.572678,-1320.838075,1205.982590,-9934.999435
17676.575191,-1186.840010,2641.676150,-10049.854920
17676.577705,-669.990328,-325.423874,-9877.571693
17676.580219,-57.427742,1780.260014,-9801.001370
17676.582738,-363.709035,2124.826469,-9934.999435
17676.585257,-1263.410333,689.132909,-9954.142016
17676.587777,-267.996131,880.558717,-9858.429112
17676.590296,-727.418070,2316.252277,-9934.999435
17676.592816,-784.845813,-1282.552914,-10011.569758
17676.595335,-1512.263883,1761.117434,-9934.999435
17676.597854,-612.562586,-1454.836141,-9839.286531
17676.600374,1722.832272,5359.922624,-9877.571693
17676.602893,-2909.672282,-5647.061336,-10260.423309
17676.605412,516.849682,-1091.127106,-9762.716208
17676.607932,3713.660675,8958.727814,-9839.286531
17676.610451,-4058.227130,-11064.411702,-9992.427178
17676.612970,-1454.836141,880.558717,-9820.143950
17676.615490,2584.248408,9647.860723,-9724.431046
17676.618009,248.853550,-593.420005,-9973.284597
17676.620529,-2718.246474,-9265.009107,-10279.565890
17676.623048,1550.549045,6604.190376,-9762.716208
17676.625567,880.558717,2124.826469,-9667.003304
17676.628087,-2699.103893,-6623.332957,-9954.142016
17676.630606,-267.996131,2813.959378,-10011.569758
17676.633125,995.414202,2163.111630,-9973.284597
17676.635645,306.281293,-2928.814862,-9954.142016
17676.638164,-344.566454,95.712904,-9973.284597
17676.640683,-306.281293,746.560651,-9839.286531
17676.643203,-497.707101,-1167.697429,-10030.712339
17676.645722,191.425808,-1282.552914,-9839.286531
17676.648242,-229.710970,1244.267752,-9877.571693
17676.650761,-382.851616,-2297.109696,-9973.284597
17676.653280,-669.990328,1110.269686,-9934.999435
17676.655800,842.273555,-57.427742,-9973.284597
17676.658319,248.853550,2392.822600,-10030.712339
17676.660838,-3713.660675,-4670.789715,-9992.427178
17676.663358,689.132909,3885.943902,-9552.147819
17676.665877,-19.142581,5474.778109,-9896.714274
17676.668396,-4996.213589,-10356.136213,-10202.995566
17676.670916,1607.976787,9035.298138,-9992.427178
17676.673435,2086.541307,4402.793584,-9858.429112
17676.675955,-3809.373579,-9781.858789,-10317.851051
17676.678474,-2105.683888,-1914.258080,-9934.999435
17676.680993,1416.550979,9973.284597,-9647.860723
17676.683518,-1875.972918,-3847.658741,-9820.143950
17676.686042,-2124.826469,-2737.389054,-10145.567824
17676.688566,1071.984525,6374.479406,-10049.854920
17676.691090,-842.273555,-1799.402595,-9858.429112
17676.693615,-823.130974,-918.843878,-9839.286531
17676.696139,-823.130974,3962.514226,-9992.427178
17676.698663,-1454.836141,-555.134843,-9839.286531
17676.701188,-765.703232,-114.855485,-9896.714274
17676.703712,-153.140646,4039.084549,-9724.431046
17676.706236,-784.845813,287.138712,-9954.142016
17676.708761,-1014.556782,-1607.976787,-9877.571693
17676.711285,-631.705166,2679.961312,-9820.143950
17676.713809,-1014.556782,497.707101,-9877.571693
17676.716333,689.132909,1167.697429,-9839.286531
17676.718858,-2163.111630,267.996131,-10068.997501
17676.721382,-555.134843,-3885.943902,-9877.571693
17676.723906,3062.812928,8633.303941,-9724.431046
17676.726431,-2871.387120,-8843.872330,-10260.423309
17676.728955,-1761.117434,-2086.541307,-9877.571693
17676.731479,4230.510357,9341.579430,-9667.003304
17676.734003,-3215.953574,-7618.747158,-9781.858789
17676.736528,-976.271621,-1397.408398,-9915.856854
17676.739052,3369.094221,8595.018779,-9973.284597
17676.741576,1244.267752,1952.543242,-10030.712339
17676.744101,-3024.527766,-7771.887805,-10107.282662
17676.746625,191.425808,4058.227130,-9743.573627
17676.749149,1378.265818,3407.379382,-9801.001370
17676.751674,-995.414202,-4383.651003,-10298.708470
17676.754198,-440.279358,57.427742,-10107.282662
17676.756722,1091.127106,2565.105827,-9858.429112
17676.759246,-689.132909,-3196.810994,-10049.854920
17676.761771,-784.845813,-823.130974,-10030.712339
17676.764295,861.416136,1244.267752,-9858.429112
17676.766819,-861.416136,-1665.404530,-9858.429112
17676.769344,-976.271621,-1110.269686,-10011.569758
17676.771868,-957.129040,1282.552914,-10088.140082
17676.774392,1148.554848,-172.283227,-9954.142016
17676.776916,-19.142581,1761.117434,-10011.569758
17676.779441,-2986.242605,-5015.356170,-10011.569758
17676.781965,1722.832272,6642.475538,-9513.862658
17676.784494,-1320.838075,1875.972918,-9992.427178
17676.787023,-4728.217458,-8863.014910,-10011.569758
17676.789552,2833.101958,11370.692995,-10030.712339
17676.792081,708.275490,421.136778,-9896.714274
17676.794610,-3541.377448,-8250.452325,-10336.993632
17676.797139,1301.695494,9820.143950,-9781.858789
17676.799668,-1301.695494,1703.689691,-9628.718142
17676.802197,-3101.098090,-5647.061336,-10011.569758
17676.804725,-1091.127106,-689.132909,-10279.565890
17676.807254,1416.550979,5589.633594,-9896.714274
17676.809783,-574.277424,-1301.695494,-9839.286531
17676.812312,-1703.689691,-1454.836141,-9973.284597
17676.814841,-1091.127106,3541.377448,-9973.284597
17676.817370,-114.855485,1301.695494,-9896.714274
17676.819899,-1148.554848,-976.271621,-9896.714274
17676.822428,-803.988394,2258.824534,-9877.571693
17676.824957,593.420005,2699.103893,-9877.571693
17676.827486,-727.418070,-76.570323,-10049.854920
17676.830015,-1531.406464,191.425808,-9877.571693
17676.832544,-918.843878,516.849682,-9839.286531
17676.835073,1071.984525,3732.803256,-9686.145885
17676.837602,-708.275490,3924.229064,-9915.856854
17676.840131,-3330.809059,-8882.157491,-10183.852986
17676.842660,4039.084549,7197.610381,-9915.856854
17676.845189,1052.841944,172.283227,-10202.995566
17676.847718,-4881.358104,-11179.267187,-10145.567824
17676.850246,3081.955509,9973.284597,-9647.860723
17676.852775,555.134843,1359.123237,-9667.003304
17676.855304,-3349.951640,-9647.860723,-10164.710405
17676.857833,2890.529701,7446.463931,-10107.282662
17676.860362,1167.697429,1091.127106,-10088.140082
17676.862891,-3771.088418,-8518.448456,-10183.852986
17676.865420,-172.283227,4709.074877,-9647.860723
17676.867949,1129.412267,5838.487144,-9743.573627
17676.870478,593.420005,-765.703232,-9877.571693
17676.873007,-1071.984525,-4345.365842,-10068.997501
17676.875536,478.564520,2928.814862,-9686.145885
17676.878065,516.849682,880.558717,-9934.999435
17676.880594,-1550.549045,-4115.654872,-10030.712339
17676.883123,-880.558717,-631.705166,-9801.001370
17676.885656,1071.984525,2967.100024,-9667.003304
17676.888188,-267.996131,-2143.969050,-10088.140082
17676.890721,-918.843878,-306.281293,-10049.854920
17676.893254,478.564520,-76.570323,-10011.569758
17676.895787,1856.830338,3675.375514,-9858.429112
17676.898320,-3924.229064,-2526.820666,-9934.999435
17676.900853,-4307.080680,-8882.157491,-10241.280728
17676.903386,2163.111630,10222.138147,-9705.288466
17676.905918,937.986459,2679.961312,-9858.429112
17676.908451,-5168.496816,-9667.003304,-10260.423309
17676.910984,2526.820666,9571.290400,-9915.856854
17676.913517,574.277424,2009.970984,-9743.573627
17676.916050,-4307.080680,-8059.026517,-10202.995566
17676.918583,325.423874,7810.172966,-9647.860723
17676.921116,650.847747,3215.953574,-9724.431046
17676.923648,-1856.830338,-5838.487144,-10183.852986
17676.926181,382.851616,3503.092286,-10049.854920
17676.928714,-114.855485,2967.100024,-9590.432981
17676.931247,-727.418070,287.138712,-9896.714274
17676.933780,-2067.398726,-1646.261949,-10049.854920
17676.936313,-421.136778,3598.805190,-9858.429112
17676.938846,-229.710970,2297.109696,-9781.858789
17676.941378,-555.134843,-669.990328,-9934.999435
17676.943911,-267.996131,1569.691626,-10145.567824
17676.946444,-689.132909,1378.265818,-9820.143950
17676.948977,-1493.121302,-1033.699363,-9858.429112
17676.951510,248.853550,3962.514226,-9801.001370
17676.954043,-2411.965181,-2354.537438,-10183.852986
17676.956576,1091.127106,-1569.691626,-9858.429112
17676.959108,1435.693560,7216.752962,-9820.143950
17676.961641,-3617.947771,-11064.411702,-10164.710405
17676.964174,-3292.523898,-6833.901346,-10088.140082
17676.966707,3905.086483,10566.704602,-9667.003304
17676.969240,-1703.689691,-3656.232933,-9743.573627
17676.971773,-2335.394858,-5474.778109,-9973.284597
17676.974306,3503.092286,8652.446522,-9992.427178
17676.976838,-363.709035,-3694.518094,-10183.852986
17676.979371,-3043.670347,-6068.198114,-10049.854920
17676.981904,1186.840010,6489.334891,-9552.147819
17676.984437,191.425808,823.130974,-9743.573627
17676.986973,-1646.261949,-5379.065205,-10202.995566
17676.989509,497.707101,2928.814862,-9915.856854
17676.992045,1493.121302,2220.539373,-9915.856854
17676.994581,-440.279358,-2431.107762,-9992.427178
17676.997117,-1722.832272,-4651.647134,-10068.997501
17676.999654,57.427742,3407.379382,-9839.286531
17677.002190,-95.712904,-382.851616,-9686.145885
17677.004726,-1205.982590,-2507.678085,-9915.856854
17677.007262,784.845813,2679.961312,-9973.284597
17677.009798,-1359.123237,-1761.117434,-10011.569758
17677.012334,1282.552914,-133.998066,-9858.429112
17677.014870,-650.847747,5819.344563,-9934.999435
17677.017406,-3771.088418,-8480.163294,-10183.852986
17677.019942,1684.547110,9169.296203,-9724.431046
17677.022478,803.988394,2813.959378,-9858.429112
17677.025014,-4594.219392,-8575.876198,-10260.423309
17677.027550,-1225.125171,-1378.265818,-10145.567824
17677.030087,2048.256146,9686.145885,-9896.714274
17677.032623,-3809.373579,-5398.207786,-9667.003304
17677.035159,-1895.115499,-172.283227,-9762.716208
17677.037695,1741.974853,7637.889739,-9724.431046
17677.040231,-1091.127106,-3177.668413,-10279.565890
17677.042767,-1301.695494,-2641.676150,-10088.140082
17677.045303,976.271621,5493.920690,-9628.718142
17677.047839,-784.845813,612.562586,-9781.858789
17677.050375,-3043.670347,-2852.244539,-9973.284597
17677.052911,-172.283227,5149.354235,-9839.286531
17677.055447,267.996131,3445.664544,-9801.001370
17677.057984,-574.277424,-4134.797453,-9973.284597
17677.060520,-1684.547110,-1263.410333,-10088.140082
17677.063056,516.849682,4460.221326,-9762.716208
17677.065592,-2297.109696,382.851616,-9743.573627
17677.068128,-1512.263883,-3407.379382,-9820.143950
17677.070664,2143.969050,8652.446522,-9820.143950
17677.073200,-2813.959378,-7695.317482,-10298.708470
17677.075736,995.414202,-1186.840010,-9858.429112
17677.078272,3445.664544,9035.298138,-9877.571693
17677.080808,-4383.651003,-11332.407834,-10088.140082
17677.083344,-823.130974,2163.111630,-9801.001370
17677.085880,2431.107762,8920.442653,-9552.147819
17677.088420,-2622.533570,-9839.286531,-10088.140082
17677.090959,-1722.832272,-8327.022648,-10164.710405
17677.093498,2029.113565,7599.604578,-9686.145885
17677.096037,229.710970,267.996131,-9590.432981
17677.098576,-3771.088418,-6719.045861,-10030.712339
17677.101115,708.275490,4460.221326,-9858.429112
17677.103655,2048.256146,3809.373579,-9839.286531
17677.106194,-1569.691626,-7101.897477,-10164.710405
17677.108733,-593.420005,708.275490,-9724.431046
17677.111272,2335.394858,4957.928427,-9820.143950
17677.113811,-2009.970984,-6240.481341,-10126.425243
17677.116350,-1588.834206,-899.701298,-9801.001370
17677.118890,1531.406464,4651.647134,-9667.003304
17677.121429,-823.130974,-2067.398726,-9801.001370
17677.123968,-1646.261949,-5493.920690,-10202.995566
17677.126507,2029.113565,4517.649069,-9896.714274
17677.129046,-2316.252277,1435.693560,-10145.567824
17677.131586,-2718.246474,-7523.034254,-10049.854920
17677.134125,2469.392923,12921.242040,-9628.718142
17677.136664,-1761.117434,-4460.221326,-9934.999435
17677.139203,-3215.953574,-4211.367776,-9915.856854
17677.141742,4173.082614,12519.247843,-9724.431046
17677.144281,-1933.400661,-5053.641331,-10088.140082
17677.146821,-2909.672282,-3962.514226,-10107.282662
17677.149360,1301.695494,10758.130410,-9513.862658
17677.151899,-1129.412267,-2163.111630,-9609.575562
17677.154438,-1837.687757,-5647.061336,-10183.852986
17677.156977,-172.283227,1301.695494,-10241.280728
17677.159516,114.855485,4134.797453,-9858.429112
17677.162056,-1627.119368,-2641.676150,-9877.571693
17677.164595,-1416.550979,803.988394,-9839.286531
17677.167134,-19.142581,5340.780043,-9762.716208
17677.169673,-1282.552914,-401.994197,-9915.856854
17677.172212,-382.851616,-248.853550,-9839.286531
17677.174752,57.427742,3120.240670,-10107.282662
17677.177291,-746.560651,-727.418070,-9934.999435
17677.179830,-2679.961312,555.134843,-9934.999435
17677.182369,191.425808,1244.267752,-9590.432981
17677.184908,440.279358,4689.932296,-9781.858789
17677.187447,-1435.693560,-3828.516160,-10183.852986
17677.189989,-842.273555,-5264.209720,-9896.714274
17677.192531,3464.807125,10241.280728,-9743.573627
17677.195073,-2775.674216,-7829.315547,-9896.714274
17677.197614,-3215.953574,-3483.949706,-9934.999435
17677.200156,2833.101958,9973.284597,-9494.720077
17677.202698,-1014.556782,-5570.491013,-10049.854920
17677.205240,-765.703232,-4364.508422,-10107.282662
17677.207782,2201.396792,6929.614250,-9762.716208
17677.210323,-516.849682,-2297.109696,-9973.284597
17677.212865,-2622.533570,-4096.512291,-10030.712339
17677.215407,861.416136,4536.791650,-9724.431046
17677.217949,1225.125171,4268.795518,-9877.571693
17677.220490,172.283227,-3024.527766,-10068.997501
17677.223032,-899.701298,-2507.678085,-10107.282662
17677.225574,899.701298,2086.541307,-9839.286531
17677.228116,-1167.697429,-1071.984525,-9954.142016
17677.230657,-1607.976787,-2297.109696,-9839.286531
17677.233199,421.136778,1914.258080,-9724.431046
17677.235741,1186.840010,937.986459,-9820.143950
17677.238283,-2220.539373,-3541.377448,-10088.140082
17677.240824,1091.127106,1263.410333,-9934.999435
17677.243366,-95.712904,6106.483275,-9992.427178
17677.245908,-4364.508422,-9073.583299,-10183.852986
17677.248450,1244.267752,9092.725880,-9609.575562
17677.250992,3560.520029,12117.253646,-9686.145885
17677.253533,-2392.822600,-6297.909083,-10049.854920
17677.256075,-1799.402595,-2660.818731,-10241.280728
17677.258617,1875.972918,9303.294269,-9839.286531
17677.261159,-2526.820666,-3426.521963,-9705.288466
17677.263700,-2182.254211,-1588.834206,-9858.429112
17677.266242,995.414202,6757.331022,-9667.003304
17677.268784,-880.558717,-1320.838075,-10049.854920
17677.271326,-1761.117434,-3598.805190,-10394.421374
17677.273867,-248.853550,3713.660675,-9820.143950
17677.276409,153.140646,2316.252277,-9762.716208
17677.278951,-2488.535504,-2201.396792,-9954.142016
17677.281493,-2124.826469,38.285162,-9915.856854
17677.284034,784.845813,3445.664544,-9858.429112
17677.286576,765.703232,1435.693560,-9992.427178
17677.289118,-1416.550979,-1531.406464,-10183.852986
17677.291662,-2335.394858,-76.570323,-9954.142016
17677.294206,1569.691626,4364.508422,-9647.860723
17677.296750,-1895.115499,248.853550,-9992.427178
17677.299294,-1129.412267,-5972.485210,-9954.142016
17677.301838,3751.945837,9724.431046,-9801.001370
17677.304382,-2392.822600,-8327.022648,-10279.565890
17677.306926,-2947.957443,-4211.367776,-9973.284597
17677.309470,4307.080680,10490.134278,-9667.003304
17677.312014,-2928.814862,-6967.899411,-9762.716208
17677.314559,-3024.527766,-9724.431046,-10068.997501
17677.317103,2201.396792,5915.057467,-10011.569758
17677.319647,1454.836141,2354.537438,-9973.284597
17677.322191,-4019.941968,-8843.872330,-10336.993632
17677.324735,-382.851616,2852.244539,-9839.286531
17677.327279,2699.103893,6470.192310,-9494.720077
17677.329823,-803.988394,-4785.645200,-10088.140082
17677.332367,-1990.828403,-3043.670347,-9992.427178
17677.334911,2335.394858,5321.637462,-9839.286531
17677.337455,574.277424,-2565.105827,-10088.140082
17677.339999,-3541.377448,-6565.905214,-10260.423309
17677.342543,57.427742,3809.373579,-9705.288466
17677.345087,1799.402595,2986.242605,-9647.860723
17677.347631,1033.699363,-248.853550,-9877.571693
17677.350175,-3101.098090,-5340.780043,-10107.282662
17677.352719,2009.970984,3120.240670,-9724.431046
17677.355263,133.998066,6508.477472,-10030.712339
17677.357807,-5417.350366,-11294.122672,-10298.708470
17677.360352,1454.836141,10317.851051,-9628.718142
17677.362896,2507.678085,5474.778109,-9590.432981
17677.365440,-5111.069074,-10719.845248,-10241.280728
17677.367984,1531.406464,8250.452325,-10068.997501
17677.370528,1148.554848,3962.514226,-9801.001370
17677.373072,-4575.076811,-8748.159426,-10107.282662
17677.375616,-248.853550,6680.760699,-9781.858789
17677.378160,1741.974853,8384.450390,-9571.290400
17677.380704,-918.843878,-2392.822600,-10030.712339
17677.383248,-1952.543242,-3713.660675,-10164.710405
17677.385792,957.129040,6278.766502,-9820.143950
17677.388336,-631.705166,612.562586,-9973.284597
17677.390880,-3656.232933,-3579.662610,-10030.712339
17677.393426,57.427742,7312.465866,-9647.860723
17677.395972,861.416136,1799.402595,-9686.145885
17677.398518,-1550.549045,-4287.938099,-10049.854920
17677.401064,248.853550,4287.938099,-10222.138147
17677.403610,-1550.549045,363.709035,-9992.427178
17677.406156,-459.421939,-267.996131,-9801.001370
17677.408701,-823.130974,3905.086483,-9781.858789
17677.411247,-1818.545176,-5493.920690,-10049.854920
17677.413793,2450.250342,1761.117434,-9858.429112
17677.416339,1607.976787,3081.955509,-10183.852986
17677.418885,-4517.649069,-9609.575562,-10298.708470
17677.421431,1359.123237,5455.635528,-9858.429112
17677.423977,1167.697429,3790.230998,-9609.575562
17677.426523,-2737.389054,-8039.883936,-9973.284597
17677.429069,1914.258080,4268.795518,-9954.142016
17677.431615,1320.838075,2507.678085,-10030.712339
17677.434160,-3024.527766,-7101.897477,-10298.708470
17677.436706,-593.420005,1684.547110,-9801.001370
17677.439252,2086.541307,5302.494882,-9628.718142
17677.441798,861.416136,995.414202,-9896.714274
17677.444344,-1205.982590,-5359.922624,-10068.997501
17677.446890,727.418070,1971.685822,-9820.143950
17677.449436,708.275490,1033.699363,-9954.142016
17677.451982,-2048.256146,-3292.523898,-10049.854920
17677.454528,-1225.125171,-267.996131,-9934.999435
17677.457074,229.710970,1856.830338,-9896.714274
17677.459619,1378.265818,-880.558717,-9820.143950
17677.462165,-593.420005,823.130974,-10164.710405
17677.464711,-1952.543242,-4843.072942,-10088.140082
17677.467257,2105.683888,8518.448456,-9820.143950
17677.469803,-3177.668413,-1244.267752,-9973.284597
17677.472349,-3713.660675,-5283.352301,-9820.143950
17677.474895,746.560651,6087.340694,-9858.429112
17677.477441,3158.525832,7771.887805,-9647.860723
17677.479987,-3943.371645,-9475.577496,-10375.278794
17677.482533,-727.418070,3617.947771,-10049.854920
17677.485078,555.134843,7350.751027,-9686.145885
17677.487624,-2756.531635,-6087.340694,-10068.997501
17677.490170,-957.129040,669.990328,-9973.284597
17677.492716,1990.828403,5761.916821,-9743.573627
17677.495247,-823.130974,-1895.115499,-9839.286531
17677.497778,-2373.680019,-1493.121302,-10068.997501
17677.500308,-593.420005,4747.360038,-9839.286531
17677.502839,-708.275490,1263.410333,-9877.571693
17677.505370,-191.425808,-612.562586,-9858.429112
17677.507901,-325.423874,191.425808,-9992.427178
17677.510431,-57.427742,2411.965181,-9973.284597
17677.512962,-1646.261949,-1014.556782,-10145.567824
17677.515493,-401.994197,2718.246474,-9839.286531
17677.518024,-2163.111630,-937.986459,-10030.712339
17677.520554,1339.980656,-1301.695494,-9590.432981
17677.523085,2201.396792,7542.176835,-9686.145885
17677.525616,-3847.658741,-11179.267187,-10145.567824
17677.528146,-153.140646,2316.252277,-10030.712339
17677.530677,3158.525832,6738.188442,-9934.999435
17677.533208,-4766.502619,-10968.698798,-10241.280728
17677.535739,344.566454,3254.238736,-9954.142016
17677.538269,3503.092286,9226.723946,-9781.858789
17677.540800,38.285162,-2507.678085,-9973.284597
17677.543331,-3483.949706,-7503.891674,-10126.425243
17677.545862,669.990328,5513.063270,-9781.858789
17677.548392,1205.982590,2756.531635,-9820.143950
17677.550923,-1339.980656,-4804.787781,-10088.140082
17677.553454,-440.279358,727.418070,-9801.001370
17677.555985,2009.970984,2794.816797,-9762.716208
17677.558515,-229.710970,-4517.649069,-10126.425243
17677.561046,-2048.256146,-1378.265818,-10049.854920
17677.563577,-631.705166,1225.125171,-9934.999435
17677.566108,-191.425808,19.142581,-9896.714274
17677.568638,1435.693560,-631.705166,-9743.573627
17677.571169,76.570323,1799.402595,-10164.710405
17677.573700,-3330.809059,-5704.489078,-10049.854920
17677.576231,1627.119368,7197.610381,-9647.860723
17677.578761,-1895.115499,2182.254211,-10030.712339
17677.581292,-4479.363907,-8633.303941,-9858.429112
17677.583823,3292.523898,11696.116869,-9743.573627
17677.586354,497.707101,746.560651,-9724.431046
17677.588884,-4000.799387,-8556.733618,-10547.562021
17677.591415,1186.840010,9341.579430,-9992.427178
17677.593946,-1110.269686,1378.265818,-9839.286531
17677.596480,-3483.949706,-6278.766502,-9954.142016
17677.599015,1397.408398,6144.768437,-9992.427178
17677.601549,2545.963246,7331.608446,-9801.001370
17677.604083,-1110.269686,-1684.547110,-9858.429112
17677.606618,-3330.809059,-3445.664544,-9954.142016
17677.609152,38.285162,7101.897477,-9896.714274
17677.611687,-306.281293,1684.547110,-9781.858789
17677.614221,-2048.256146,-4383.651003,-9858.429112
17677.616756,1359.123237,5359.922624,-9724.431046
17677.619290,516.849682,2909.672282,-9877.571693
17677.621824,-3771.088418,-5264.209720,-10183.852986
17677.624359,555.134843,4575.076811,-9801.001370
17677.626893,-918.843878,2603.390989,-9877.571693
17677.629428,-1320.838075,-7676.174901,-9934.999435
17677.631962,2431.107762,3043.670347,-9781.858789
17677.634496,2124.826469,3981.656806,-10145.567824
17677.637031,-4632.504554,-11121.839445,-10222.138147
17677.639565,1244.267752,6029.912952,-9839.286531
17677.642100,1186.840010,4287.938099,-9609.575562
17677.644634,-2909.672282,-9494.720077,-10030.712339
17677.647169,2335.394858,5417.350366,-9877.571693
17677.649703,1627.119368,3311.666478,-9934.999435
17677.652237,-3637.090352,-8767.302006,-10183.852986
17677.654772,-1091.127106,1856.830338,-9839.286531
17677.657306,2239.681954,5570.491013,-9647.860723
17677.659841,-344.566454,-4230.510357,-10068.997501
17677.662375,-1033.699363,-2277.967115,-9934.999435
17677.664909,440.279358,1646.261949,-9820.143950
17677.667444,57.427742,1837.687757,-9954.142016
17677.669978,-2488.535504,-4077.369710,-10049.854920
17677.672513,-555.134843,114.855485,-10011.569758
17677.675047,1588.834206,2871.387120,-9705.288466
17677.677582,-172.283227,-3445.664544,-9954.142016
17677.680116,1588.834206,3273.381317,-9781.858789
17677.682650,-2986.242605,516.849682,-10298.708470
17677.685185,-2852.244539,-6106.483275,-10068.997501
17677.687719,2239.681954,11964.113000,-9934.999435
17677.690254,-1665.404530,-4785.645200,-9839.286531
17677.692788,-2507.678085,-2890.529701,-9801.001370
17677.695323,1205.982590,12270.394293,-9934.999435
17677.697860,976.271621,4900.500685,-9877.571693
17677.700398,-4728.217458,-8556.733618,-10107.282662
17677.702935,-287.138712,5685.346498,-9762.716208
17677.705473,937.986459,5570.491013,-9571.290400
17677.708010,-2220.539373,-5493.920690,-10030.712339
17677.710548,-382.851616,1512.263883,-10164.710405
17677.713085,421.136778,4421.936165,-9915.856854
17677.715623,-1933.400661,-2660.818731,-10107.282662
17677.718160,-1818.545176,1665.404530,-9934.999435
17677.720698,765.703232,5283.352301,-9705.288466
17677.723236,-401.994197,-1435.693560,-9896.714274
17677.725773,-1186.840010,421.136778,-9915.856854
17677.728311,-1493.121302,1052.841944,-10049.854920
17677.730848,-0.000000,3369.094221,-9896.714274
17677.733386,-2833.101958,-2431.107762,-10126.425243
17677.735923,1320.838075,-612.562586,-9667.003304
17677.738461,2392.822600,7389.036189,-9686.145885
17677.740998,-3388.236802,-11428.120738,-10126.425243
17677.743536,-172.283227,3081.955509,-9877.571693
17677.746073,2699.103893,6068.198114,-9896.714274
17677.748611,-4747.360038,-11083.554283,-10202.995566
17677.751148,535.992262,3675.375514,-9762.716208
17677.753686,2450.250342,6336.194245,-9801.001370
17677.756224,-2124.826469,-9150.153622,-10145.567824
17677.758761,-3790.230998,-6565.905214,-10049.854920
17677.761299,823.130974,5761.916821,-9762.716208
17677.763836,1071.984525,2354.537438,-9762.716208
17677.766374,-2201.396792,-6202.196179,-10107.282662
17677.768911,-38.285162,1588.834206,-9762.716208
17677.771449,2890.529701,3905.086483,-9839.286531
17677.773986,-2813.959378,-6929.614250,-10279.565890
17677.776524,-2239.681954,-1435.693560,-10049.854920
17677.779061,1990.828403,5934.200048,-9839.286531
17677.781599,-555.134843,-2890.529701,-9839.286531
17677.784137,-574.277424,-4019.941968,-9954.142016
17677.786674,3503.092286,8307.880067,-9705.288466
17677.789212,-4498.506488,-4326.223261,-10068.997501
17677.791749,-4747.360038,-10949.556218,-10241.280728
17677.794287,1741.974853,11274.980091,-9896.714274
17677.796824,1359.123237,2258.824534,-9762.716208
17677.799348,-4211.367776,-8575.876198,-10088.140082
17677.801872,2469.392923,10375.278794,-9801.001370
17677.804395,-19.142581,1186.840010,-9762.716208
17677.806919,-3905.086483,-7752.745224,-10298.708470
17677.809442,229.710970,7982.456194,-9973.284597
17677.811966,133.998066,1895.115499,-9762.716208
17677.814490,-2048.256146,-5321.637462,-10068.997501
17677.817013,650.847747,4651.647134,-10011.569758
17677.819537,-76.570323,2890.529701,-9858.429112
17677.822061,-1780.260014,-4077.369710,-9934.999435
17677.824584,-2373.680019,-363.709035,-9992.427178
17677.827108,1071.984525,5627.918755,-9743.573627
17677.829632,76.570323,-287.138712,-9877.571693
17677.832155,-803.988394,-689.132909,-9992.427178
17677.834679,-1282.552914,2316.252277,-10088.140082
17677.837203,210.568389,1895.115499,-9915.856854
17677.839726,-2641.676150,-555.134843,-10145.567824
17677.842250,440.279358,-3043.670347,-9801.001370
17677.844774,3349.951640,8059.026517,-9667.003304
17677.847297,-2794.816797,-9628.718142,-10202.995566
17677.849821,-2277.967115,-1033.699363,-9915.856854
17677.852344,3675.375514,8805.587168,-9724.431046
17677.854868,708.275490,1071.984525,-9839.286531
17677.857392,-2679.961312,-8863.014910,-10107.282662
17677.859915,2660.818731,7101.897477,-9858.429112
17677.862439,1014.556782,861.416136,-9992.427178
17677.864963,-4326.223261,-8039.883936,-10145.567824
17677.867486,-306.281293,3254.238736,-9781.858789
17677.870010,2679.961312,5513.063270,-9686.145885
17677.872534,-1071.984525,-5359.922624,-10202.995566
17677.875057,-1416.550979,-2373.680019,-9992.427178
17677.877581,3062.812928,5302.494882,-9724.431046
17677.880105,-1014.556782,-2431.107762,-10145.567824
17677.882628,-3713.660675,-6029.912952,-10183.852986
17677.885152,-1627.119368,4479.363907,-10164.710405
17677.887675,3503.092286,5149.354235,-9705.288466
17677.890199,-650.847747,-1990.828403,-10126.425243
17677.892723,-2297.109696,-6642.475538,-10068.997501
17677.895246,2660.818731,12251.251712,-9705.288466
17677.897770,-3828.516160,-3598.805190,-9992.427178
17677.900299,-3483.949706,-4402.793584,-9820.143950
17677.902827,3943.371645,13246.665914,-9781.858789
17677.905356,-1493.121302,-4957.928427,-9762.716208
17677.907884,-2584.248408,-4575.076811,-10356.136213
17677.910413,1818.545176,10432.706536,-9762.716208
17677.912941,-2201.396792,-2871.387120,-9820.143950
17677.915470,-2488.535504,-2986.242605,-9858.429112
17677.917998,-95.712904,2679.961312,-10030.712339
17677.920527,1952.543242,4670.789715,-9877.571693
17677.923055,-1875.972918,-3369.094221,-9992.427178
17677.925584,-1550.549045,1225.125171,-9896.714274
17677.928112,-76.570323,5819.344563,-9896.714274
17677.930641,-1225.125171,-2258.824534,-9992.427178
17677.933169,-574.277424,267.996131,-9992.427178
17677.935698,612.562586,4555.934230,-9858.429112
17677.938226,-861.416136,-2086.541307,-9877.571693
17677.940755,-2258.824534,2201.396792,-9934.999435
17677.943283,-2029.113565,-1741.974853,-10049.854920
17677.945812,2450.250342,3637.090352,-9915.856854
17677.948340,-880.558717,-1856.830338,-9781.858789
17677.950869,-2890.529701,-10126.425243,-9992.427178
17677.953397,861.416136,4670.789715,-9915.856854
17677.955926,1588.834206,3005.385186,-9877.571693
17677.958454,-5091.926493,-10241.280728,-10279.565890
17677.960983,1359.123237,5647.061336,-9781.858789
17677.963511,1856.830338,4153.940034,-9647.860723
17677.966040,-2086.541307,-9035.298138,-10107.282662
17677.968569,689.132909,3541.377448,-9839.286531
17677.971097,1091.127106,4096.512291,-9724.431046
17677.973626,-3311.666478,-6508.477472,-9934.999435
17677.976154,-497.707101,-19.142581,-9858.429112
17677.978683,2603.390989,5283.352301,-9686.145885
17677.981211,1569.691626,-535.992262,-9820.143950
17677.983740,-2756.531635,-5532.205851,-9973.284597
17677.986268,-708.275490,2488.535504,-9877.571693
17677.988797,-267.996131,1359.123237,-10126.425243
17677.991325,172.283227,-3139.383251,-9896.714274
17677.993854,-574.277424,401.994197,-9858.429112
17677.996382,1531.406464,-478.564520,-9724.431046
17677.998911,-669.990328,5666.203917,-9934.999435
17678.001443,-4996.213589,-6604.190376,-10145.567824
17678.003976,210.568389,6451.049730,-9667.003304
17678.006508,2718.246474,6163.911018,-9820.143950
17678.009041,-3924.229064,-7982.456194,-10164.710405
17678.011574,669.990328,4862.215523,-9992.427178
17678.014106,1646.261949,9284.151688,-9781.858789
17678.016639,-2239.681954,-2029.113565,-9762.716208
17678.019171,-2526.820666,-3139.383251,-9992.427178
17678.021704,1473.978722,6144.768437,-9724.431046
17678.024236,459.421939,823.130974,-9820.143950
17678.026769,-2009.970984,-2699.103893,-10030.712339
17678.029301,-1205.982590,2852.244539,-9858.429112
17678.031834,-363.709035,4077.369710,-9839.286531
17678.034367,-1167.697429,-1454.836141,-10011.569758
17678.036899,-497.707101,765.703232,-10011.569758
17678.039432,287.138712,3273.381317,-9781.858789
17678.041964,-497.707101,-727.418070,-9820.143950
17678.044497,-631.705166,1971.685822,-9954.142016
17678.047029,-3158.525832,-1397.408398,-10202.995566
17678.049562,1378.265818,-727.418070,-9686.145885
17678.052095,2239.681954,6872.186507,-9647.860723
17678.054627,-3215.953574,-11083.554283,-10011.569758
17678.057160,38.285162,3005.385186,-9839.286531
17678.059692,2622.533570,5627.918755,-9858.429112
17678.062225,-5111.069074,-10624.132344,-10241.280728
17678.064757,555.134843,3273.381317,-9839.286531
17678.067290,2584.248408,6661.618118,-9724.431046
17678.069822,-1799.402595,-9035.298138,-10049.854920
17678.072355,57.427742,1320.838075,-9992.427178
17678.074888,1607.976787,5723.631659,-9686.145885
17678.077420,248.853550,1148.554848,-9877.571693
17678.079953,-2220.539373,-6604.190376,-10145.567824
17678.082485,1244.267752,3483.949706,-9647.860723
17678.085018,1473.978722,1052.841944,-9743.573627
17678.087550,-2526.820666,-5685.346498,-9992.427178
17678.090083,-325.423874,1684.547110,-9934.999435
17678.092616,-267.996131,2354.537438,-10088.140082
17678.095148,210.568389,-4670.789715,-9973.284597
17678.097681,574.277424,3273.381317,-9934.999435
17678.100213,-880.558717,-3732.803256,-9896.714274
17678.102749,784.845813,5685.346498,-9743.573627
17678.105285,-3196.810994,229.710970,-10126.425243
17678.107821,-3981.656806,-7293.323285,-10011.569758
17678.110357,823.130974,5091.926493,-9973.284597
17678.112893,3005.385186,6795.616184,-9705.288466
17678.115429,-3809.373579,-7599.604578,-10068.997501
17678.117965,-746.560651,3024.527766,-9973.284597
17678.120501,-0.000000,6412.764568,-9858.429112
17678.123037,-3062.812928,-5551.348432,-10030.712339
17678.125573,-1454.836141,440.279358,-10049.854920
17678.128109,1435.693560,4670.789715,-9820.143950
17678.130645,-823.130974,-746.560651,-9877.571693
17678.133181,-2124.826469,-382.851616,-9934.999435
17678.135717,-765.703232,4307.080680,-9877.571693
17678.138253,76.570323,555.134843,-10011.569758
17678.140789,-593.420005,248.853550,-9858.429112
17678.143325,-727.418070,-95.712904,-9781.858789
17678.145861,-1722.832272,2603.390989,-9839.286531
17678.148397,-631.705166,-1282.552914,-9896.714274
17678.150933,-114.855485,5072.783912,-9954.142016
17678.153469,-2737.389054,-7178.467800,-10241.280728
17678.156005,2871.387120,2373.680019,-9724.431046
17678.158541,2909.672282,4766.502619,-9973.284597
17678.161077,-5111.069074,-11217.552349,-10107.282662
17678.163613,363.709035,4632.504554,-9877.571693
17678.166149,2277.967115,6393.621987,-9762.716208
17678.168685,-3024.527766,-9858.429112,-10183.852986
17678.171221,-1186.840010,3445.664544,-9954.142016
17678.173757,1856.830338,8154.739421,-9533.005238
17678.176293,-1416.550979,-2105.683888,-9934.999435
17678.178829,-3311.666478,-5934.200048,-10317.851051
17678.181365,1588.834206,4536.791650,-9839.286531
17678.183901,1493.121302,382.851616,-9954.142016
17678.186437,-1301.695494,-7101.897477,-9992.427178
17678.188973,133.998066,4345.365842,-9571.290400
17678.191509,210.568389,1761.117434,-9801.001370
17678.194045,-2871.387120,-5570.491013,-10183.852986
17678.196581,1186.840010,3005.385186,-9992.427178
17678.199117,19.142581,669.990328,-9801.001370
17678.201653,191.425808,-4670.789715,-9781.858789
17678.204193,880.558717,6853.043926,-9609.575562
17678.206732,-3330.809059,210.568389,-9992.427178
17678.209271,-3273.381317,-3790.230998,-9858.429112
17678.211811,3292.523898,10336.993632,-9781.858789
17678.214350,-1148.554848,-3005.385186,-9839.286531
17678.216889,-2048.256146,-4230.510357,-10107.282662
17678.219428,1512.263883,8997.012976,-9762.716208
17678.221968,-2335.394858,-2488.535504,-9858.429112
17678.224507,-2220.539373,-2603.390989,-10011.569758
17678.227046,1875.972918,7350.751027,-9858.429112
17678.229586,-689.132909,-957.129040,-9915.856854
17678.232125,-2258.824534,-3847.658741,-10049.854920
17678.234664,-0.000000,6412.764568,-9801.001370
17678.237204,325.423874,6163.911018,-9858.429112
17678.239743,-1607.976787,-3885.943902,-10145.567824
17678.242282,-1129.412267,267.996131,-10049.854920
17678.244821,1761.117434,5321.637462,-9743.573627
17678.247361,-2143.969050,-1263.410333,-9915.856854
17678.249900,-1244.267752,-1684.547110,-9858.429112
17678.252439,-19.142581,7657.032320,-9858.429112
17678.254979,-2469.392923,-8595.018779,-10183.852986
17678.257518,2967.100024,3330.809059,-9801.001370
17678.260057,2067.398726,2565.105827,-10068.997501
17678.262597,-4517.649069,-10375.278794,-10145.567824
17678.265136,1473.978722,6412.764568,-9820.143950
17678.267675,2679.961312,9896.714274,-9781.858789
17678.270214,-1186.840010,-6202.196179,-10145.567824
17678.272754,-114.855485,-2545.963246,-9801.001370
17678.275293,1895.115499,7255.038123,-9743.573627
17678.277832,-2220.539373,-4402.793584,-10068.997501
17678.280372,-2297.109696,-3235.096155,-10317.851051
17678.282911,1665.404530,4651.647134,-9934.999435
17678.285453,727.418070,-2277.967115,-9992.427178
17678.287995,-1282.552914,-4785.645200,-10068.997501
17678.290537,612.562586,4460.221326,-9667.003304
17678.293079,-0.000000,-172.283227,-9743.573627
17678.295621,-2603.390989,-4345.365842,-10183.852986
17678.298163,1148.554848,2392.822600,-10164.710405
17678.300705,1435.693560,5417.350366,-9877.571693
17678.303247,-2469.392923,-6374.479406,-9858.429112
17678.305789,574.277424,5340.780043,-9609.575562
17678.308331,-1550.549045,3656.232933,-10088.140082
17678.310873,-4498.506488,-7484.749093,-10011.569758
17678.313415,2699.103893,10049.854920,-9896.714274
17678.315957,937.986459,1588.834206,-9839.286531
17678.318499,-3311.666478,-7925.028451,-10317.851051
17678.321041,937.986459,8173.882002,-9801.001370
17678.323583,-1167.697429,1454.836141,-9724.431046
17678.326125,-3349.951640,-5379.065205,-9839.286531
17678.328667,899.701298,5589.633594,-9858.429112
17678.331209,1914.258080,6393.621987,-9724.431046
17678.333751,-1569.691626,-1225.125171,-9820.143950
17678.336293,-2220.539373,-363.709035,-9896.714274
17678.338835,114.855485,5570.491013,-9858.429112
17678.341377,-363.709035,-976.271621,-9992.427178
17678.343919,-1646.261949,-765.703232,-9992.427178
17678.346461,-57.427742,2297.109696,-9781.858789
17678.349003,-1033.699363,2967.100024,-9762.716208
17678.351545,-2373.680019,-4479.363907,-10107.282662
17678.354087,2182.254211,5302.494882,-9992.427178
17678.356629,-746.560651,-1397.408398,-10145.567824
17678.359171,-995.414202,-6853.043926,-9820.143950
17678.361713,3598.805190,9513.862658,-9609.575562
17678.364255,1990.828403,4019.941968,-9801.001370
17678.366797,-5130.211654,-11102.696864,-10241.280728
17678.369339,669.990328,5053.641331,-9801.001370
17678.371881,1761.117434,5264.209720,-9858.429112
17678.374423,-1837.687757,-9188.438784,-10107.282662
17678.376965,631.705166,2986.242605,-10049.854920
17678.379507,1148.554848,3809.373579,-9762.716208
17678.382049,-2105.683888,-5264.209720,-10030.712339
17678.384591,-306.281293,-287.138712,-10011.569758
17678.387119,1301.695494,2220.539373,-9896.714274
17678.389647,-421.136778,-3483.949706,-10011.569758
17678.392174,-937.986459,-363.709035,-9839.286531
17678.394702,-784.845813,593.420005,-9934.999435
17678.397230,612.562586,1531.406464,-9973.284597
17678.399758,-1378.265818,-3120.240670,-10011.569758
17678.402285,937.986459,440.279358,-9686.145885
17678.404813,-325.423874,5264.209720,-9934.999435
17678.407341,-3732.803256,-7982.456194,-10279.565890
17678.409868,1129.412267,9207.581365,-9858.429112
17678.412396,861.416136,2565.105827,-9896.714274
17678.414924,-3981.656806,-6719.045861,-10088.140082
17678.417451,2124.826469,8633.303941,-9877.571693
17678.419979,19.142581,1818.545176,-9781.858789
17678.422507,-3292.523898,-7178.467800,-10107.282662
17678.425034,-363.709035,6431.907149,-9705.288466
17678.427562,937.986459,6585.047795,-9839.286531
17678.430090,-1071.984525,-1856.830338,-10145.567824
17678.432617,-1435.693560,-1761.117434,-10183.852986
17678.435145,-95.712904,5034.498750,-9724.431046
17678.437673,-363.709035,765.703232,-9915.856854
17678.440200,-1301.695494,-918.843878,-10049.854920
17678.442728,-823.130974,3292.523898,-9973.284597
17678.445256,133.998066,1071.984525,-9801.001370
17678.447783,-1512.263883,918.843878,-9781.858789
17678.450311,-899.701298,-995.414202,-9954.142016
17678.452839,172.283227,5015.356170,-9877.571693
17678.455366,-2545.963246,-6776.473603,-10222.138147
17678.457894,-650.847747,2545.963246,-9858.429112
17678.460422,3254.238736,8499.305875,-9571.290400
17678.462949,-2258.824534,-6489.334891,-9762.716208
17678.465477,-3273.381317,-4517.649069,-10068.997501
17678.468005,2852.244539,9494.720077,-9743.573627
17678.470533,-957.129040,-4536.791650,-10030.712339
17678.473060,-516.849682,-3579.662610,-9954.142016
17678.475588,1856.830338,6757.331022,-9609.575562
17678.478116,-1052.841944,-3292.523898,-9954.142016
17678.480643,-1397.408398,-2947.957443,-10030.712339
17678.483171,784.845813,3196.810994,-9801.001370
17678.485699,267.996131,-2373.680019,-9858.429112
17678.488231,-421.136778,-1818.545176,-9992.427178
17678.490763,-363.709035,746.560651,-9801.001370
17678.493295,-937.986459,-382.851616,-9801.001370
17678.495827,287.138712,153.140646,-9954.142016
17678.498359,-957.129040,-1129.412267,-10088.140082
17678.500891,746.560651,19.142581,-9762.716208
17678.503423,-976.271621,3254.238736,-10011.569758
17678.505955,-2833.101958,-5723.631659,-10126.425243
17678.508487,1033.699363,9092.725880,-9801.001370
17678.511020,-133.998066,-57.427742,-10049.854920
17678.513552,-3196.810994,-3847.658741,-9915.856854
17678.516084,2679.961312,8958.727814,-9686.145885
17678.518616,-957.129040,-918.843878,-9954.142016
17678.521148,-2660.818731,-5283.352301,-9954.142016
17678.523680,-899.701298,1837.687757,-9877.571693
17678.526212,631.705166,5379.065205,-9858.429112
17678.528744,-1416.550979,-2239.681954,-10126.425243
17678.531276,-1186.840010,-708.275490,-10164.710405
17678.533808,-325.423874,4230.510357,-9724.431046
17678.536340,-133.998066,803.988394,-9934.999435
17678.538873,-957.129040,-267.996131,-10011.569758
17678.541405,-1282.552914,2584.248408,-9954.142016
17678.543937,-248.853550,612.562586,-9820.143950
17678.546469,-1091.127106,2277.967115,-9743.573627
17678.549001,-1244.267752,-2526.820666,-9992.427178
17678.551533,1627.119368,5053.641331,-9896.714274
17678.554065,-38.285162,2297.109696,-9954.142016
17678.556597,-2182.254211,-8480.163294,-9934.999435
17678.559129,2335.394858,7255.038123,-9571.290400
17678.561661,-153.140646,-1933.400661,-9839.286531
17678.564193,-4326.223261,-8365.307810,-10279.565890
17678.566726,2124.826469,7925.028451,-9724.431046
17678.569258,287.138712,287.138712,-9973.284597
17678.571790,-1339.980656,-6412.764568,-10088.140082
17678.574322,1225.125171,5340.780043,-9896.714274
17678.576854,-459.421939,-478.564520,-9820.143950
17678.579386,-1588.834206,-4058.227130,-10011.569758
17678.581918,593.420005,2086.541307,-9973.284597
17678.584450,-287.138712,-1722.832272,-10068.997501
17678.586982,-746.560651,-2603.390989,-9954.142016
17678.589518,555.134843,1052.841944,-9839.286531
17678.592054,-918.843878,133.998066,-10011.569758
17678.594590,-210.568389,-2909.672282,-10068.997501
17678.597126,-57.427742,2431.107762,-10049.854920
17678.599662,-306.281293,-3369.094221,-9896.714274
17678.602197,1033.699363,5876.772306,-9571.290400
17678.604733,-3675.375514,-2488.535504,-9973.284597
17678.607269,-1818.545176,899.701298,-9839.286531
17678.609805,2584.248408,8116.454259,-9686.145885
17678.612341,-2411.965181,-4709.074877,-9992.427178
17678.614877,-1359.123237,191.425808,-10030.712339
17678.617413,612.562586,5455.635528,-9839.286531
17678.619948,-746.560651,1914.258080,-9781.858789
17678.622484,-2239.681954,-4077.369710,-9915.856854
17678.625020,-229.710970,3062.812928,-9915.856854
17678.627556,287.138712,3120.240670,-9762.716208
17678.630092,-1359.123237,-957.129040,-9973.284597
17678.632628,-1033.699363,1320.838075,-9858.429112
17678.635164,-306.281293,2775.674216,-9877.571693
17678.637699,-727.418070,95.712904,-10011.569758
17678.640235,-727.418070,1493.121302,-9992.427178
17678.642771,-1282.552914,-95.712904,-9973.284597
17678.645307,1071.984525,2947.957443,-9743.573627
17678.647843,-1569.691626,555.134843,-10126.425243
17678.650379,-2813.959378,-7637.889739,-10260.423309
17678.652914,2986.242605,4632.504554,-9839.286531
17678.655450,1148.554848,344.566454,-9992.427178
17678.657986,-4307.080680,-8997.012976,-10126.425243
17678.660522,2335.394858,6967.899411,-9801.001370
17678.663058,555.134843,1071.984525,-9877.571693
17678.665594,-3005.385186,-7810.172966,-10183.852986
17678.668130,1607.976787,5991.627790,-9973.284597
17678.670665,229.710970,727.418070,-9839.286531
17678.673201,-1627.119368,-5895.914886,-10088.140082
17678.675737,440.279358,2871.387120,-9743.573627
17678.678273,-0.000000,803.988394,-9858.429112
17678.680809,-401.994197,-3445.664544,-10088.140082
17678.683345,-38.285162,-210.568389,-9877.571693
17678.685881,172.283227,1665.404530,-9801.001370
17678.688416,-1244.267752,-3349.951640,-9954.142016
17678.690955,689.132909,2124.826469,-9934.999435
17678.693494,-1033.699363,-689.132909,-9992.427178
17678.696033,267.996131,-1722.832272,-9762.716208
17678.698572,-899.701298,4823.930362,-10049.854920
17678.701111,-2699.103893,-5742.774240,-10049.854920
17678.703650,1071.984525,7886.743290,-9801.001370
17678.706189,325.423874,1378.265818,-10011.569758
17678.708728,-3483.949706,-4345.365842,-9973.284597
17678.711267,2258.824534,8059.026517,-9801.001370
17678.713806,1512.263883,6814.758765,-9801.001370
17678.716344,-2622.533570,-4689.932296,-9992.427178
17678.718883,-1627.119368,287.138712,-9801.001370
17678.721422,306.281293,5359.922624,-9667.003304
17678.723961,-976.271621,-306.281293,-9915.856854
17678.726500,-1588.834206,-1320.838075,-10145.567824
17678.729039,-631.705166,3522.234867,-9858.429112
17678.731578,-172.283227,1531.406464,-9896.714274
17678.734117,-1205.982590,-440.279358,-9992.427178
17678.736656,-689.132909,2813.959378,-9954.142016
17678.739195,-937.986459,-57.427742,-9877.571693
17678.741734,229.710970,2813.959378,-9705.288466
17678.744272,-2143.969050,-995.414202,-10049.854920
17678.746811,-1703.689691,-6585.047795,-10068.997501
17678.749350,3235.096155,7025.327154,-9858.429112
17678.751889,-1091.127106,-4747.360038,-10107.282662
17678.754428,-3541.377448,-6202.196179,-9954.142016
17678.756967,3943.371645,9111.868461,-9647.860723
17678.759506,-1301.695494,-3713.660675,-9992.427178
17678.762045,-2718.246474,-6163.911018,-10241.280728
17678.764584,2277.967115,8595.018779,-9781.858789
17678.767123,-191.425808,-2565.105827,-9820.143950
17678.769662,-1607.976787,-5264.209720,-10068.997501
17678.772200,535.992262,4153.940034,-9743.573627
17678.774739,-153.140646,-287.138712,-9839.286531
17678.777278,-650.847747,-3656.232933,-10088.140082
17678.779817,-57.427742,248.853550,-10068.997501
17678.782356,38.285162,727.418070,-9839.286531
17678.784895,-765.703232,-2928.814862,-9915.856854
17678.787434,957.129040,2450.250342,-9858.429112
17678.789973,-1703.689691,-1512.263883,-10011.569758
17678.792515,459.421939,-1780.260014,-9801.001370
17678.795057,-191.425808,6565.905214,-9973.284597
17678.797599,-3273.381317,-7006.184573,-10145.567824
17678.800140,842.273555,7312.465866,-9858.429112
17678.802682,1129.412267,3828.516160,-9934.999435
17678.805224,-3924.229064,-6163.911018,-10126.425243
17678.807766,1799.402595,7274.180704,-9858.429112
17678.810308,1837.687757,8212.167163,-9762.716208
17678.812850,-2163.111630,-4019.941968,-9954.142016
17678.815392,-1569.691626,-880.558717,-10011.569758
17678.817934,421.136778,5513.063270,-9743.573627
17678.820476,-478.564520,325.423874,-10030.712339
17678.823017,-1378.265818,-1320.838075,-10030.712339
17678.825559,-650.847747,2813.959378,-9781.858789
17678.828101,-133.998066,2411.965181,-9801.001370
17678.830643,-1378.265818,-325.423874,-9954.142016
17678.833185,-823.130974,2086.541307,-9954.142016
17678.835727,-1033.699363,1359.123237,-9915.856854
17678.838269,765.703232,1167.697429,-9801.001370
17678.840811,210.568389,4613.361973,-9934.999435
17678.843353,-2909.672282,-6987.041992,-10279.565890
17678.845894,2220.539373,2086.541307,-9762.716208
17678.848436,2584.248408,4000.799387,-9877.571693
17678.850978,-4460.221326,-10222.138147,-10088.140082
17678.853520,1071.984525,4555.934230,-9858.429112
17678.856062,2239.681954,5340.780043,-9877.571693
17678.858604,-3177.668413,-9169.296203,-10241.280728
17678.861146,803.988394,3330.809059,-9973.284597
17678.863688,1952.543242,4307.080680,-9992.427178
17678.866230,-1339.980656,-6451.049730,-10145.567824
17678.868771,-229.710970,191.425808,-9896.714274
17678.871313,1148.554848,2373.680019,-9820.143950
17678.873855,-229.710970,-401.994197,-9915.856854
17678.876397,-593.420005,-2354.537438,-10049.854920
17678.878939,172.283227,937.986459,-9743.573627
17678.881481,-612.562586,-95.712904,-9820.143950
17678.884023,229.710970,-1741.974853,-10049.854920
17678.886565,-267.996131,2488.535504,-10145.567824
17678.889107,-2239.681954,-5053.641331,-9915.856854
17678.891648,1607.976787,6872.186507,-9628.718142
17678.894176,-2277.967115,957.129040,-9992.427178
17678.896704,-3924.229064,-5742.774240,-9934.999435
17678.899232,2890.529701,10719.845248,-9762.716208
17678.901759,-593.420005,-440.279358,-9762.716208
17678.904287,-3771.088418,-7274.180704,-10241.280728
17678.906815,-1263.410333,497.707101,-10011.569758
17678.909343,497.707101,6565.905214,-9839.286531
17678.911870,-1110.269686,-3771.088418,-9915.856854
17678.914398,-1493.121302,-325.423874,-10126.425243
17678.916926,-153.140646,3445.664544,-9915.856854
17678.919454,-459.421939,2182.254211,-9915.856854
17678.921981,-1205.982590,-1167.697429,-9877.571693
17678.924509,-1282.552914,1493.121302,-9877.571693
17678.927037,267.996131,4058.227130,-9839.286531
17678.929565,-1531.406464,-1627.119368,-9954.142016
17678.932092,-1301.695494,2124.826469,-9762.716208
17678.934620,-1205.982590,-842.273555,-9934.999435
17678.937148,957.129040,-1914.258080,-9839.286531
17678.939676,1205.982590,5800.201982,-9858.429112
17678.942203,-3330.809059,-10298.708470,-10107.282662
17678.944731,19.142581,1990.828403,-9801.001370
17678.947259,3598.805190,6451.049730,-9762.716208
17678.949786,-4613.361973,-10241.280728,-10222.138147
17678.952314,-497.707101,1129.412267,-9858.429112
17678.954842,2431.107762,8422.735552,-9724.431046
17678.957370,-1473.978722,-7331.608446,-9915.856854
17678.959897,-1493.121302,-1473.978722,-9954.142016
17678.962425,1014.556782,4575.076811,-9858.429112
17678.964953,-57.427742,-1856.830338,-9839.286531
17678.967481,-612.562586,-2986.242605,-10088.140082
17678.970008,-976.271621,-689.132909,-9992.427178
17678.972536,535.992262,708.275490,-9934.999435
17678.975064,-382.851616,-1320.838075,-9934.999435
17678.977592,153.140646,-287.138712,-9877.571693
17678.980119,-1397.408398,-210.568389,-10030.712339
17678.982647,516.849682,-2373.680019,-9877.571693
17678.985175,899.701298,8403.592971,-9628.718142
17678.987703,-4651.647134,-6795.616184,-10030.712339
17678.990230,-421.136778,4077.369710,-9801.001370
17678.992758,3215.953574,9188.438784,-9801.001370
17678.995290,-4441.078746,-8365.307810,-10241.280728
17678.997823,-535.992262,2679.961312,-10049.854920
17679.000355,1569.691626,8843.872330,-9724.431046
17679.002888,-459.421939,784.845813,-9781.858789
17679.005420,-2182.254211,-5111.069074,-9724.431046
17679.007952,-210.568389,6183.053598,-9628.718142
17679.010485,-631.705166,1875.972918,-9839.286531
17679.013017,-1741.974853,-1684.547110,-9992.427178
17679.015550,-497.707101,2622.533570,-9743.573627
17679.018082,-516.849682,1818.545176,-9762.716208
17679.020614,-1282.552914,803.988394,-9839.286531
17679.023147,-1244.267752,344.566454,-10049.854920
17679.025679,-976.271621,3426.521963,-9858.429112
17679.028211,-1569.691626,-3177.668413,-9915.856854
17679.030744,2641.676150,4441.078746,-9858.429112
17679.033276,861.416136,6049.055533,-9839.286531
17679.035809,-3503.092286,-11466.405899,-10126.425243
17679.038341,842.273555,4096.512291,-9781.858789
17679.040873,2890.529701,5015.356170,-9801.001370
17679.043406,-4938.785846,-11255.837510,-10183.852986
17679.045938,421.136778,3464.807125,-9801.001370
17679.048470,2086.541307,7197.610381,-9781.858789
17679.051003,-1703.689691,-8480.163294,-10126.425243
17679.053535,-957.129040,535.992262,-9820.143950
17679.056068,1225.125171,4115.654872,-9801.001370
17679.058600,-76.570323,-2833.101958,-9839.286531
17679.061132,-727.418070,-2029.113565,-9954.142016
17679.063665,-1167.697429,-421.136778,-9954.142016
17679.066197,478.564520,133.998066,-9896.714274
17679.068730,-267.996131,-612.562586,-9915.856854
17679.071262,76.570323,-1263.410333,-9954.142016
17679.073794,-1033.699363,535.992262,-10107.282662
17679.076327,248.853550,-2603.390989,-9915.856854
17679.078859,1167.697429,8116.454259,-9609.575562
17679.081391,-4153.940034,-4977.071008,-9934.999435
17679.083924,-1397.408398,1320.838075,-9801.001370
17679.086456,3330.809059,10222.138147,-9820.143950
17679.088989,-3828.516160,-7121.040058,-10011.569758
17679.091521,-1703.689691,-19.142581,-9973.284597
17679.094053,2603.390989,9590.432981,-9647.860723
17679.096590,-325.423874,2679.961312,-9896.714274
17679.099126,-2354.537438,-6049.055533,-10107.282662
17679.101662,-0.000000,4345.365842,-9724.431046
17679.104198,-287.138712,3560.520029,-9724.431046
17679.106735,-1550.549045,-1914.258080,-9973.284597
17679.109271,-497.707101,2316.252277,-9896.714274
17679.111807,-440.279358,2947.957443,-9915.856854
17679.114343,-957.129040,267.996131,-9973.284597
17679.116880,-1148.554848,593.420005,-10088.140082
17679.119416,459.421939,3617.947771,-9762.716208
17679.121952,-1818.545176,-2297.109696,-9973.284597
17679.124488,1263.410333,-38.285162,-9762.716208
17679.127025,2852.244539,7867.600709,-9915.856854
17679.129561,-1646.261949,-6565.905214,-10068.997501
17679.132097,-3043.670347,-5474.778109,-9858.429112
17679.134634,4287.938099,10088.140082,-9686.145885
17679.137170,-1722.832272,-5302.494882,-10088.140082
17679.139706,-2718.246474,-5857.629725,-10164.710405
17679.142242,2411.965181,9341.579430,-9801.001370
17679.144779,382.851616,-3407.379382,-9820.143950
17679.147315,-1703.689691,-4689.932296,-10049.854920
17679.149851,287.138712,3254.238736,-9762.716208
17679.152387,382.851616,-38.285162,-9724.431046
17679.154924,-344.566454,-1933.400661,-10011.569758
17679.157460,-1129.412267,-880.558717,-10068.997501
17679.159996,-267.996131,-1339.980656,-9954.142016
17679.162532,746.560651,2048.256146,-9896.714274
17679.165069,-0.000000,-2431.107762,-10088.140082
17679.167605,287.138712,2105.683888,-9973.284597
17679.170141,-3407.379382,-1971.685822,-9877.571693
17679.172677,-708.275490,306.281293,-9686.145885
17679.175214,765.703232,8154.739421,-9934.999435
17679.177750,-3847.658741,-7963.313613,-10126.425243
17679.180286,76.570323,4823.930362,-9915.856854
17679.182822,3139.383251,8575.876198,-9609.575562
17679.185359,-4230.510357,-8039.883936,-10222.138147
17679.187895,-1435.693560,574.277424,-10049.854920
17679.190431,-95.712904,6699.903280,-9762.716208
17679.192967,-306.281293,1741.974853,-9820.143950
17679.195504,-1837.687757,-3828.516160,-10030.712339
17679.198043,-746.560651,3139.383251,-9915.856854
17679.200583,-631.705166,3062.812928,-9820.143950
17679.203122,-1129.412267,-1167.697429,-9839.286531
17679.205662,-1186.840010,2794.816797,-9896.714274
17679.208201,-248.853550,1397.408398,-9954.142016
17679.210741,-1646.261949,842.273555,-9915.856854
17679.213280,-421.136778,-689.132909,-9820.143950
17679.215820,1244.267752,5091.926493,-9762.716208
17679.218360,-2833.101958,-7063.612315,-10279.565890
17679.220899,880.558717,76.570323,-10049.854920
17679.223439,3081.955509,9245.866526,-9667.003304
17679.225978,-555.134843,-3503.092286,-9743.573627
17679.228518,-4345.365842,-8250.452325,-10068.997501
17679.231057,3062.812928,9418.149754,-9762.716208
17679.233597,210.568389,-344.566454,-9973.284597
17679.236136,-1454.836141,-6987.041992,-10145.567824
17679.238676,650.847747,5819.344563,-9839.286531
17679.241216,401.994197,-593.420005,-9877.571693
17679.243755,-516.849682,-2699.103893,-9896.714274
17679.246295,-459.421939,38.285162,-9781.858789
17679.248834,-746.560651,-631.705166,-9896.714274
17679.251374,727.418070,-153.140646,-9954.142016
17679.253913,19.142581,1359.123237,-9915.856854
17679.256453,-363.709035,-3617.947771,-10107.282662
17679.258992,229.710970,2947.957443,-10011.569758
17679.261532,-1741.974853,-2679.961312,-10068.997501
17679.264071,440.279358,4632.504554,-9667.003304
17679.266611,-1780.260014,1091.127106,-9915.856854
17679.269151,-3062.812928,-3675.375514,-10068.997501
17679.271690,2201.396792,8729.016845,-10011.569758
17679.274230,-746.560651,-880.558717,-9820.143950
17679.276769,-3311.666478,-4268.795518,-10011.569758
17679.279309,1205.982590,6987.041992,-9743.573627
17679.281848,-880.558717,440.279358,-9954.142016
17679.284388,-1684.547110,-3464.807125,-9915.856854
17679.286927,-574.277424,191.425808,-9973.284597
17679.289467,-401.994197,3598.805190,-9896.714274
17679.292007,-1359.123237,421.136778,-9820.143950
17679.294546,-842.273555,114.855485,-9896.714274
17679.297086,-880.558717,3254.238736,-9762.716208
17679.299628,-95.712904,918.843878,-9934.999435
17679.302171,-1665.404530,1148.554848,-9934.999435
17679.304714,-191.425808,-401.994197,-9801.001370
17679.307256,267.996131,4613.361973,-9705.288466
17679.309799,-2928.814862,-7657.032320,-10183.852986
