#time,accel_x,accel_y,accel_z
23245.913191,-574.277424,1339.980656,9705.288466
23245.915550,-1071.984525,727.418070,9609.575562
23245.917909,-229.710970,574.277424,9552.147819
23245.920268,-555.134843,1607.976787,9839.286531
23245.922627,478.564520,-153.140646,9131.011042
23245.924986,-516.849682,1167.697429,9513.862658
23245.927424,-1244.267752,1531.406464,9954.142016
23245.929861,-727.418070,-1473.978722,9150.153622
23245.932299,-1435.693560,555.134843,9360.722011
23245.934736,1110.269686,2775.674216,10145.567824
23245.937174,-421.136778,593.420005,9686.145885
23245.939612,1435.693560,-1646.261949,9035.298138
23245.942049,325.423874,2813.959378,9628.718142
23245.944487,-1263.410333,2967.100024,10413.563955
23245.946924,172.283227,-4747.360038,8307.880067
23245.949362,1627.119368,-669.990328,9360.722011
23245.951800,-1320.838075,5091.926493,10949.556218
23245.954237,210.568389,-3751.945837,8365.307810
23245.956675,1148.554848,-344.566454,9379.864592
23245.959112,-727.418070,5015.356170,11121.839445
23245.961550,306.281293,-2871.387120,8518.448456
23245.963987,-19.142581,-746.560651,9111.868461
23245.966425,57.427742,4153.940034,10949.556218
23245.968863,363.709035,-2392.822600,8997.012976
23245.971300,1378.265818,-1684.547110,8671.589102
23245.973738,229.710970,689.132909,9647.860723
23245.976175,172.283227,2890.529701,10681.560086
23245.978613,-267.996131,-3005.385186,8767.302006
23245.981050,708.275490,401.994197,9475.577496
23245.983488,-727.418070,3809.373579,10547.562021
23245.985926,440.279358,-2967.100024,8652.446522
23245.988363,765.703232,-612.562586,9226.723946
23245.990801,401.994197,3541.377448,10700.702667
23245.993238,-535.992262,-1818.545176,8901.300072
23245.995676,76.570323,-1397.408398,9035.298138
23245.998113,1531.406464,3330.809059,10738.987829
23246.000551,-1761.117434,-497.707101,9322.436850
23246.002989,344.566454,-3962.514226,8231.309744
23246.005426,-133.998066,440.279358,9437.292334
23246.007864,535.992262,3924.229064,10872.985894
23246.010301,-2124.826469,-3560.520029,8384.450390
23246.012739,1971.685822,-3005.385186,8422.735552
23246.015176,-1359.123237,8958.727814,12174.681389
23246.017614,555.134843,-6221.338760,8020.741355
23246.020052,3407.379382,1129.412267,9571.290400
23246.022489,-6336.194245,6719.045861,11408.978157
23246.024976,4823.930362,-8441.878133,7140.182638
23246.027463,-2105.683888,8269.594906,11600.403965
23246.029949,-2699.103893,1071.984525,9801.001370
23246.032436,2469.392923,-6489.334891,6948.756830
23246.034923,1148.554848,2469.392923,10068.997501
23246.037410,-2526.820666,7733.602643,11849.257515
23246.039897,-114.855485,-10298.708470,6546.762634
23246.042383,-669.990328,4766.502619,10470.991698
23246.044870,-2450.250342,6393.621987,11542.976222
23246.047357,2967.100024,-6891.329088,7293.323285
23246.049844,-937.986459,3292.523898,10049.854920
23246.052330,-1780.260014,5015.356170,10815.558152
23246.054817,-1033.699363,-4517.649069,8116.454259
23246.057304,-784.845813,995.414202,9590.432981
23246.059791,-172.283227,3483.949706,10490.134278
23246.062277,765.703232,-1741.974853,8863.014910
23246.064764,210.568389,-1531.406464,8977.870395
23246.067251,-1244.267752,2220.539373,10011.569758
23246.069738,-823.130974,1110.269686,9954.142016
23246.072224,-803.988394,-727.418070,9207.581365
23246.074711,172.283227,708.275490,9571.290400
23246.077198,38.285162,1665.404530,9820.143950
23246.079685,-899.701298,-325.423874,9437.292334
23246.082172,-612.562586,689.132909,9533.005238
23246.084658,-1320.838075,1646.261949,9724.431046
23246.087145,-899.701298,1129.412267,9475.577496
23246.089632,-38.285162,-363.709035,9418.149754
23246.092119,823.130974,823.130974,9820.143950
23246.094605,-689.132909,2009.970984,10030.712339
23246.097092,-1722.832272,-382.851616,9341.579430
23246.099579,-1646.261949,-765.703232,8863.014910
23246.102066,267.996131,1244.267752,9686.145885
23246.104552,172.283227,2852.244539,10107.282662
23246.107039,325.423874,-1818.545176,8920.442653
23246.109526,-1895.115499,2029.113565,9820.143950
23246.112013,-2354.537438,-1761.117434,8977.870395
23246.114499,2565.105827,2584.248408,10145.567824
23246.116986,-5551.348432,1167.697429,9552.147819
23246.119473,5915.057467,-6833.901346,7676.174901
23246.121960,1607.976787,9399.007173,12576.675586
23246.124475,-5704.489078,-2565.105827,12653.245909
23246.126993,3158.525832,-12404.392358,6029.912952
23246.129511,574.277424,5417.350366,10834.700733
23246.132029,-631.705166,7848.458128,11925.827838
23246.134547,1780.260014,-12232.109131,5800.201982
23246.137064,-842.273555,6240.481341,10968.698798
23246.139582,-1895.115499,4192.225195,11294.122672
23246.142100,1990.828403,-9303.294269,6795.616184
23246.144618,-995.414202,4670.789715,10624.132344
23246.147136,153.140646,3407.379382,10758.130410
23246.149654,1244.267752,-6029.912952,8001.598774
23246.152172,-210.568389,2641.676150,10164.710405
23246.154689,-401.994197,2775.674216,10317.851051
23246.157207,-133.998066,-440.279358,9360.722011
23246.159725,153.140646,-1531.406464,8997.012976
23246.162243,95.712904,1569.691626,9934.999435
23246.164761,995.414202,1167.697429,9973.284597
23246.167279,-153.140646,76.570323,9590.432981
23246.169797,363.709035,-669.990328,9379.864592
23246.172314,229.710970,689.132909,9590.432981
23246.174832,-114.855485,1320.838075,9839.286531
23246.177350,421.136778,-861.416136,9360.722011
23246.179868,918.843878,-382.851616,9705.288466
23246.182386,-478.564520,937.986459,9896.714274
23246.184904,-57.427742,-957.129040,9131.011042
23246.187422,1703.689691,-861.416136,9265.009107
23246.189939,-1186.840010,708.275490,9590.432981
23246.192457,229.710970,-114.855485,9265.009107
23246.194975,38.285162,957.129040,9915.856854
23246.197493,38.285162,650.847747,9877.571693
23246.200011,1722.832272,-2143.969050,9188.438784
23246.202529,918.843878,4555.934230,10585.847182
23246.205047,-1856.830338,-1818.545176,8958.727814
23246.207565,4077.369710,-1435.693560,9073.583299
23246.210082,-4287.938099,3215.953574,10470.991698
23246.212600,2794.816797,-4326.223261,8193.024582
23246.215118,-1761.117434,5455.635528,10853.843314
23246.217636,-4019.941968,-995.414202,9188.438784
23246.220154,2603.390989,-8786.444587,6680.760699
23246.222672,-1359.123237,7886.743290,11313.265253
23246.225212,-1378.265818,4115.654872,10930.413637
23246.227752,1186.840010,-10853.843314,6221.338760
23246.230292,-114.855485,8882.157491,11810.972354
23246.232832,-2718.246474,2871.387120,10681.560086
23246.235372,1359.123237,-9667.003304,6297.909083
23246.237912,-363.709035,8346.165229,11485.548480
23246.240452,-535.992262,3732.803256,10796.415571
23246.242992,210.568389,-8097.311678,6776.473603
23246.245532,-976.271621,6068.198114,10987.841379
23246.248072,-1550.549045,3962.514226,10930.413637
23246.250612,-210.568389,-2124.826469,9035.298138
23246.253152,344.566454,-2718.246474,8288.737486
23246.255692,-784.845813,3713.660675,10356.136213
23246.258232,555.134843,57.427742,9762.716208
23246.260772,-899.701298,-191.425808,9399.007173
23246.263312,-1378.265818,708.275490,9513.862658
23246.265852,-363.709035,344.566454,9533.005238
23246.268392,133.998066,1129.412267,9628.718142
23246.270932,-267.996131,421.136778,9456.434915
23246.273472,-1454.836141,440.279358,9533.005238
23246.276012,-842.273555,2737.389054,10107.282662
23246.278552,19.142581,421.136778,9609.575562
23246.281092,746.560651,-1493.121302,8805.587168
23246.283632,344.566454,669.990328,9552.147819
23246.286172,-1722.832272,2182.254211,10451.849117
23246.288712,-2124.826469,-2048.256146,8690.731683
23246.291252,1129.412267,-153.140646,9131.011042
23246.293792,-306.281293,6049.055533,11045.269122
23246.296332,995.414202,-2967.100024,8575.876198
23246.298872,-1914.258080,382.851616,9150.153622
23246.301412,-1301.695494,1071.984525,9781.858789
23246.303952,1263.410333,2354.537438,10183.852986
23246.306492,-4230.510357,-2871.387120,8422.735552
23246.309032,6910.471669,-1339.980656,9245.866526
23246.311572,-612.562586,9781.858789,12576.675586
23246.314112,-4115.654872,2794.816797,10738.987829
23246.316652,3254.238736,-11734.402030,6125.625856
23246.319192,-1818.545176,10949.556218,12710.673651
23246.321732,-401.994197,1301.695494,9934.999435
23246.324272,2813.959378,-10968.698798,5991.627790
23246.326826,-1473.978722,11045.269122,12423.534939
23246.329380,-593.420005,-669.990328,9820.143950
23246.331933,1799.402595,-8173.882002,7006.184573
23246.334487,-1186.840010,6489.334891,11274.980091
23246.337041,-229.710970,440.279358,9667.003304
23246.339594,1148.554848,-5398.207786,7925.028451
23246.342148,363.709035,4670.789715,10968.698798
23246.344702,-210.568389,1263.410333,10700.702667
23246.347255,133.998066,-1722.832272,8920.442653
23246.349809,76.570323,-727.418070,9303.294269
23246.352363,-114.855485,1416.550979,9973.284597
23246.354916,-38.285162,-57.427742,9494.720077
23246.357470,-229.710970,172.283227,9475.577496
23246.360024,727.418070,516.849682,9801.001370
23246.362577,727.418070,153.140646,9571.290400
23246.365131,344.566454,363.709035,9552.147819
23246.367685,-133.998066,-880.558717,9341.579430
23246.370238,-114.855485,191.425808,9667.003304
23246.372792,-363.709035,842.273555,9801.001370
23246.375346,2048.256146,-535.992262,9456.434915
23246.377899,-133.998066,727.418070,9590.432981
23246.380453,-306.281293,-306.281293,9245.866526
23246.383007,-382.851616,-248.853550,9475.577496
23246.385560,363.709035,1263.410333,10011.569758
23246.388114,-765.703232,-2067.398726,8901.300072
23246.390668,2794.816797,1071.984525,9571.290400
23246.393221,-2201.396792,3062.812928,10451.849117
23246.395775,4134.797453,-4785.645200,8327.022648
23246.398329,-2967.100024,3828.516160,10451.849117
23246.400882,-2909.672282,-1837.687757,8748.159426
23246.403436,3388.236802,363.709035,9475.577496
23246.405990,-5876.772306,5551.348432,10968.698798
23246.408543,-1493.121302,-3866.801322,8288.737486
23246.411097,1435.693560,-1875.972918,8461.020714
23246.413651,-708.275490,11045.269122,12748.958813
23246.416204,-1052.841944,-7905.885870,7255.038123
23246.418758,1110.269686,-3005.385186,8173.882002
23246.421312,-3273.381317,11734.402030,13036.097525
23246.423865,-823.130974,-7561.319416,7274.180704
23246.426419,1167.697429,-2086.541307,8231.309744
23246.428913,-1550.549045,11313.265253,12691.531070
23246.431408,-401.994197,-6393.621987,7637.889739
23246.433902,401.994197,-2163.111630,8480.163294
23246.436397,-2239.681954,9552.147819,12442.677520
23246.438891,76.570323,-4766.502619,8250.452325
23246.441386,1359.123237,-6029.912952,7542.176835
23246.443880,-842.273555,1990.828403,9705.288466
23246.446375,133.998066,2986.242605,10317.851051
23246.448869,-1014.556782,-1359.123237,9150.153622
23246.451364,-1033.699363,153.140646,9379.864592
23246.453858,-918.843878,1493.121302,9820.143950
23246.456353,-229.710970,918.843878,9513.862658
23246.458847,133.998066,842.273555,9494.720077
23246.461342,-133.998066,1225.125171,9896.714274
23246.463836,-497.707101,153.140646,9494.720077
23246.466331,-1244.267752,823.130974,9475.577496
23246.468825,-38.285162,-267.996131,9265.009107
23246.471320,-363.709035,95.712904,9360.722011
23246.473814,669.990328,3024.527766,10375.278794
23246.476309,-880.558717,842.273555,9801.001370
23246.478803,1148.554848,-1512.263883,8767.302006
23246.481298,-2182.254211,2871.387120,10107.282662
23246.483792,574.277424,2105.683888,10126.425243
23246.486287,-3694.518094,-1741.974853,8901.300072
23246.488781,2641.676150,-1856.830338,8920.442653
23246.491276,2067.398726,8729.016845,12117.253646
23246.493770,-2737.389054,-5972.485210,7714.460062
23246.496265,4517.649069,-6144.768437,7637.889739
23246.498759,-5608.776174,14567.503989,13801.800757
23246.501254,1990.828403,-9322.436850,7006.184573
23246.503748,2431.107762,-12921.242040,5532.205851
23246.506243,918.843878,10241.280728,12423.534939
23246.508737,-861.416136,4096.512291,11121.839445
23246.511232,1320.838075,-10892.128475,6029.912952
23246.513726,-76.570323,7255.038123,11562.118803
23246.516221,210.568389,2833.101958,10796.415571
23246.518715,1569.691626,-7982.456194,7025.327154
23246.521210,76.570323,4115.654872,10566.704602
23246.523704,38.285162,2622.533570,10681.560086
23246.526199,382.851616,-4058.227130,8231.309744
23246.528718,-325.423874,2297.109696,9992.427178
23246.531238,191.425808,2603.390989,10317.851051
23246.533757,842.273555,-19.142581,9686.145885
23246.536277,-325.423874,-1033.699363,9303.294269
23246.538796,95.712904,459.421939,9513.862658
23246.541316,38.285162,937.986459,9877.571693
23246.543835,1071.984525,57.427742,9418.149754
23246.546355,325.423874,-344.566454,9418.149754
23246.548874,-478.564520,440.279358,9762.716208
23246.551394,-95.712904,-19.142581,9667.003304
23246.553913,1722.832272,-248.853550,9609.575562
23246.556433,-497.707101,-19.142581,9207.581365
23246.558952,76.570323,248.853550,9418.149754
23246.561472,114.855485,1550.549045,10088.140082
23246.563991,-555.134843,-57.427742,9571.290400
23246.566511,918.843878,-2794.816797,8824.729749
23246.569030,1550.549045,3426.521963,10279.565890
23246.571550,-1588.834206,880.558717,9801.001370
23246.574069,3962.514226,-3637.090352,8384.450390
23246.576589,-4000.799387,2450.250342,10068.997501
23246.579108,1569.691626,-1703.689691,9016.155557
23246.581628,-861.416136,3637.090352,10470.991698
23246.584147,-3905.086483,-1282.552914,8977.870395
23246.586666,4173.082614,-2775.674216,8231.309744
23246.589186,-3426.521963,10413.563955,12251.251712
23246.591705,421.136778,-5742.774240,7886.743290
23246.594225,2009.970984,-3120.240670,8633.303941
23246.596744,191.425808,9265.009107,12021.540742
23246.599264,-2967.100024,3273.381317,10796.415571
23246.601783,1627.119368,-10643.274925,6106.483275
23246.604303,-248.853550,8441.878133,11542.976222
23246.606822,-1665.404530,5455.635528,11045.269122
23246.609342,1914.258080,-8901.300072,6719.045861
23246.611861,-612.562586,6719.045861,11198.409768
23246.614381,-2890.529701,2335.394858,10317.851051
23246.616900,248.853550,-6987.041992,7082.754896
23246.619420,-1110.269686,5130.211654,10872.985894
23246.621939,401.994197,2392.822600,10394.421374
23246.624459,382.851616,-2833.101958,8633.303941
23246.626978,-1225.125171,1205.982590,9016.155557
23246.629515,-765.703232,2048.256146,9992.427178
23246.632053,-1646.261949,861.416136,9552.147819
23246.634590,-38.285162,-1186.840010,8939.585234
23246.637127,957.129040,2373.680019,10068.997501
23246.639664,-612.562586,2048.256146,10164.710405
23246.642201,-1282.552914,-1780.260014,8805.587168
23246.644738,-325.423874,803.988394,9801.001370
23246.647276,-1244.267752,2565.105827,10164.710405
23246.649813,-95.712904,-440.279358,9073.583299
23246.652350,19.142581,-401.994197,9245.866526
23246.654887,-76.570323,2316.252277,10088.140082
23246.657424,-1186.840010,-516.849682,9418.149754
23246.659961,669.990328,976.271621,9628.718142
23246.662499,-4230.510357,153.140646,9360.722011
23246.665036,3369.094221,-2029.113565,8748.159426
23246.667573,1205.982590,7925.028451,11772.687192
23246.670110,-2354.537438,-6144.768437,7714.460062
23246.672647,4421.936165,-4977.071008,8039.883936
23246.675184,-5819.344563,13801.800757,13629.517530
23246.677721,2258.824534,-9820.143950,6967.899411
23246.680259,2679.961312,-2411.965181,8633.303941
23246.682796,-727.418070,13074.382686,13342.378818
23246.685333,248.853550,-10432.706536,6374.479406
23246.687870,287.138712,-689.132909,8824.729749
23246.690407,-57.427742,8920.442653,12098.111066
23246.692944,191.425808,1990.828403,10585.847182
23246.695482,1990.828403,-9552.147819,6489.334891
23246.698019,153.140646,5857.629725,11140.982026
23246.700556,-1225.125171,2699.103893,10604.989763
23246.703093,210.568389,-6240.481341,7599.604578
23246.705630,114.855485,3541.377448,10317.851051
23246.708167,-344.566454,3254.238736,10413.563955
23246.710704,1263.410333,-4230.510357,8059.026517
23246.713242,-421.136778,880.558717,9590.432981
23246.715779,-95.712904,2775.674216,10547.562021
23246.718316,-287.138712,-1799.402595,9054.440718
23246.720853,440.279358,-210.568389,9399.007173
23246.723390,344.566454,1129.412267,9724.431046
23246.725927,440.279358,1129.412267,9934.999435
23246.728465,1895.115499,-1627.119368,9265.009107
23246.731014,-574.277424,1091.127106,9839.286531
23246.733564,-612.562586,-19.142581,9360.722011
23246.736113,555.134843,-401.994197,9437.292334
23246.738663,-114.855485,2277.967115,10145.567824
23246.741212,2029.113565,-1435.693560,9360.722011
23246.743762,114.855485,2469.392923,10126.425243
23246.746311,-1052.841944,-823.130974,9341.579430
23246.748861,2277.967115,-19.142581,9360.722011
23246.751410,-2660.818731,0.000000,9571.290400
23246.753960,1339.980656,-2411.965181,8786.444587
23246.756509,-287.138712,5436.492947,11179.267187
23246.759059,-5053.641331,-1531.406464,8939.585234
23246.761608,4058.227130,-5225.924558,7389.036189
23246.764158,-3579.662610,12691.531070,12768.101394
23246.766707,325.423874,-5130.211654,8078.169098
23246.769257,2660.818731,-5915.057467,7771.887805
23246.771806,-2009.970984,14567.503989,13897.513661
23246.774356,-2220.539373,-7982.456194,7389.036189
23246.776905,2201.396792,-4996.213589,7561.319416
23246.779455,-1856.830338,14299.507858,13686.945272
23246.782004,95.712904,-4804.787781,8039.883936
23246.784554,976.271621,-5340.780043,7178.467800
23246.787103,650.847747,4977.071008,10624.132344
23246.789653,-2469.392923,5895.914886,11504.691061
23246.792202,-497.707101,-8690.731683,6546.762634
23246.794752,-382.851616,3215.953574,10202.995566
23246.797301,-287.138712,5972.485210,11581.261384
23246.799851,-95.712904,-4115.654872,8250.452325
23246.802401,-593.420005,-631.705166,8863.014910
23246.804950,-1052.841944,6010.770371,11140.982026
23246.807500,-976.271621,-2947.957443,8556.733618
23246.810049,861.416136,-1646.261949,8633.303941
23246.812599,-669.990328,5876.772306,11160.124606
23246.815148,-1339.980656,-1167.697429,9131.011042
23246.817698,-612.562586,-4766.502619,8154.739421
23246.820247,-229.710970,2143.969050,9705.288466
23246.822797,-497.707101,5474.778109,10968.698798
23246.825346,-306.281293,-3388.236802,8403.592971
23246.827896,746.560651,-727.418070,9035.298138
23246.830445,-2239.681954,4594.219392,10987.841379
23246.833004,-497.707101,-555.134843,9226.723946
23246.835564,-3215.953574,-3311.666478,8346.165229
23246.838123,3388.236802,3771.088418,10490.134278
23246.840682,-2488.535504,5551.348432,10815.558152
23246.843241,459.421939,-10968.698798,5972.485210
23246.845801,3713.660675,4039.084549,10815.558152
23246.848360,-5570.491013,9418.149754,12882.956878
23246.850919,631.705166,-6202.196179,7963.313613
23246.853478,2928.814862,-7561.319416,7101.897477
23246.856037,-210.568389,14184.652373,13648.660110
23246.858597,-478.564520,-5455.635528,8020.741355
23246.861156,1071.984525,-6029.912952,7255.038123
23246.863715,-1148.554848,12327.822035,13399.806560
23246.866274,325.423874,-4498.506488,8690.731683
23246.868834,2124.826469,-7274.180704,7063.612315
23246.871393,-325.423874,8997.012976,12174.681389
23246.873952,-574.277424,-1148.554848,9456.434915
23246.876511,229.710970,-5493.920690,7752.745224
23246.879070,-172.283227,6068.198114,11198.409768
23246.881630,-708.275490,5723.631659,11121.839445
23246.884189,593.420005,-3981.656806,8173.882002
23246.886748,1186.840010,-1512.263883,8843.872330
23246.889307,-765.703232,5800.201982,11408.978157
23246.891867,-899.701298,-3273.381317,8633.303941
23246.894426,1129.412267,-1607.976787,8824.729749
23246.896985,478.564520,4977.071008,10987.841379
23246.899544,2220.539373,-2967.100024,8958.727814
23246.902103,19.142581,-957.129040,9169.296203
23246.904663,-1320.838075,3120.240670,10413.563955
23246.907222,574.277424,-1780.260014,9016.155557
23246.909781,306.281293,957.129040,9552.147819
23246.912340,2124.826469,1148.554848,10145.567824
23246.914900,1244.267752,2507.678085,10317.851051
23246.917459,-1607.976787,-1646.261949,9131.011042
23246.920018,2909.672282,-593.420005,9169.296203
23246.922577,-4019.941968,1416.550979,9820.143950
23246.925137,3349.951640,-3464.807125,8441.878133
23246.927696,-1646.261949,6451.049730,11428.120738
23246.930255,-3828.516160,-2813.959378,8729.016845
23246.932814,3656.232933,-3081.955509,8097.311678
23246.935380,-4058.227130,12059.825904,12672.388490
23246.937945,1033.699363,-6891.329088,7350.751027
23246.940511,3024.527766,-2526.820666,8671.589102
23246.943076,-2813.959378,12710.673651,13361.521398
23246.945642,-3617.947771,1646.261949,10336.993632
23246.948208,2373.680019,-11351.550414,5838.487144
23246.950773,-669.990328,11255.837510,12385.249778
23246.953339,-1512.263883,3943.371645,10547.562021
23246.955904,918.843878,-9801.001370,6144.768437
23246.958470,-363.709035,7503.891674,11581.261384
23246.961035,-2124.826469,3254.238736,10719.845248
23246.963601,-401.994197,-7867.600709,6757.331022
23246.966166,-1397.408398,3962.514226,10317.851051
23246.968732,-1148.554848,2507.678085,10451.849117
23246.971298,842.273555,-3981.656806,8193.024582
23246.973863,-1263.410333,2986.242605,10126.425243
23246.976429,-1244.267752,4479.363907,10700.702667
23246.978994,-803.988394,-1780.260014,8805.587168
23246.981560,-325.423874,-555.134843,9054.440718
23246.984125,-1435.693560,4115.654872,10432.706536
23246.986691,-38.285162,-1799.402595,8939.585234
23246.989256,-478.564520,325.423874,9475.577496
23246.991822,-516.849682,4632.504554,10719.845248
23246.994388,-1148.554848,-2775.674216,8709.874264
23246.996953,287.138712,-765.703232,8882.157491
23246.999519,-1531.406464,3866.801322,10509.276859
23247.002084,-1282.552914,19.142581,9284.151688
23247.004650,-2411.965181,-4441.078746,8307.880067
23247.007215,2947.957443,5781.059402,11179.267187
23247.009781,76.570323,10279.565890,12404.392358
23247.012346,-1933.400661,-8441.878133,6987.041992
23247.014912,4823.930362,-4383.651003,8154.739421
23247.017478,-5168.496816,14510.076246,14088.939469
23247.020043,2258.824534,-10853.843314,6680.760699
23247.022609,1952.543242,-2584.248408,8537.591037
23247.025174,-669.990328,13036.097525,13323.236237
23247.027740,325.423874,-9858.429112,6604.190376
23247.030305,1359.123237,-669.990328,8882.157491
23247.032871,-2852.244539,11351.550414,13131.810429
23247.035436,210.568389,-9533.005238,6910.471669
23247.038007,1799.402595,-2526.820666,8537.591037
23247.040578,-0.000000,6738.188442,11236.694930
23247.043149,-401.994197,3254.238736,10662.417506
23247.045719,-382.851616,-6374.479406,7618.747158
23247.048290,38.285162,2833.101958,10126.425243
23247.050860,669.990328,4402.793584,10968.698798
23247.053431,440.279358,-2928.814862,8652.446522
23247.056001,382.851616,-1856.830338,8786.444587
23247.058572,287.138712,3656.232933,10719.845248
23247.061143,-267.996131,-382.851616,9571.290400
23247.063713,727.418070,-2316.252277,8805.587168
23247.066284,1856.830338,2220.539373,10375.278794
23247.068854,-727.418070,1033.699363,9877.571693
23247.071425,-133.998066,-3503.092286,8288.737486
23247.073996,1129.412267,-2182.254211,8920.442653
23247.076566,-516.849682,5685.346498,11121.839445
23247.079137,1416.550979,-1493.121302,9322.436850
23247.081707,1091.127106,-727.418070,9035.298138
23247.084278,-516.849682,1914.258080,10356.136213
23247.086848,1301.695494,497.707101,9820.143950
23247.089419,-1856.830338,-3675.375514,8480.163294
23247.091990,4077.369710,3101.098090,10164.710405
23247.094560,-4651.647134,4345.365842,10738.987829
23247.097131,1378.265818,-8556.733618,6833.901346
23247.099701,880.558717,8059.026517,11676.974288
23247.102272,-3847.658741,6125.625856,11351.550414
23247.104843,612.562586,-7408.178770,7331.608446
23247.107413,2833.101958,-3828.516160,8269.594906
23247.109984,-2507.678085,14261.222696,13763.515595
23247.112554,-2373.680019,-10202.995566,6489.334891
23247.115125,2277.967115,-2469.392923,8365.307810
23247.117695,-3330.809059,13840.085918,13667.802691
23247.120266,114.855485,-8116.454259,6948.756830
23247.122837,497.707101,-2009.970984,8059.026517
23247.125407,-1435.693560,11523.833642,13265.808494
23247.127978,-1052.841944,-5091.926493,8250.452325
23247.130548,-57.427742,-4345.365842,7714.460062
23247.133119,-746.560651,8595.018779,11925.827838
23247.135690,-267.996131,-1895.115499,11351.550414
23247.138260,-38.285162,-5015.356170,7905.885870
23247.140834,-727.418070,1339.980656,9533.005238
23247.143407,-1225.125171,5455.635528,11064.411702
23247.145980,-363.709035,-3732.803256,8288.737486
23247.148554,19.142581,976.271621,9418.149754
23247.151127,-803.988394,4077.369710,10700.702667
23247.153701,19.142581,-2469.392923,8633.303941
23247.156274,-1359.123237,1856.830338,9705.288466
23247.158847,-1282.552914,229.710970,9628.718142
23247.161421,-153.140646,-899.701298,9016.155557
23247.163994,287.138712,2124.826469,10068.997501
23247.166568,-2967.100024,1014.556782,9533.005238
23247.169141,-2373.680019,-4747.360038,8135.596840
23247.171714,3311.666478,3292.523898,10394.421374
23247.174288,-5876.772306,5513.063270,10949.556218
23247.176861,3885.943902,-11313.265253,5991.627790
23247.179435,2641.676150,7369.893608,11772.687192
23247.182008,-3369.094221,4498.506488,11447.263318
23247.184582,2622.533570,-13093.525267,5627.918755
23247.187155,-1416.550979,9169.296203,12212.966550
23247.189728,-957.129040,3426.521963,10509.276859
23247.192302,2431.107762,-10777.272990,6010.770371
23247.194875,631.705166,10107.282662,12404.392358
23247.197449,-2813.959378,1091.127106,10011.569758
23247.200022,765.703232,-10030.712339,6795.616184
23247.202595,2105.683888,-593.420005,9131.011042
23247.205169,-306.281293,8652.446522,12423.534939
23247.207742,1186.840010,-7006.184573,7542.176835
23247.210316,-210.568389,-1454.836141,8824.729749
23247.212889,-612.562586,7369.893608,11753.544611
23247.215463,-765.703232,-2813.959378,8690.731683
23247.218036,210.568389,-3235.096155,8097.311678
23247.220609,957.129040,4383.651003,10700.702667
23247.223183,880.558717,1033.699363,10126.425243
23247.225756,38.285162,-4096.512291,8403.592971
23247.228330,1205.982590,1933.400661,10222.138147
23247.230903,-1397.408398,1627.119368,10011.569758
23247.233476,-746.560651,-2354.537438,8671.589102
23247.236050,1971.685822,-1435.693560,9111.868461
23247.238623,-1435.693560,4785.645200,10968.698798
23247.241197,1033.699363,-2220.539373,8824.729749
23247.243772,-1033.699363,-1531.406464,8767.302006
23247.246348,1263.410333,2507.678085,10241.280728
23247.248924,-1952.543242,306.281293,9762.716208
23247.251500,2947.957443,-4307.080680,8556.733618
23247.254075,-1110.269686,6144.768437,11294.122672
23247.256651,-3617.947771,-3005.385186,8403.592971
23247.259227,4115.654872,-1263.410333,8920.442653
23247.261803,-6412.764568,8997.012976,11887.542677
23247.264378,-2545.963246,-267.996131,9475.577496
23247.266954,2048.256146,-6240.481341,7235.895542
23247.269530,-229.710970,10987.841379,12595.818166
23247.272106,-1301.695494,-4536.791650,8384.450390
23247.274681,746.560651,-6470.192310,7101.897477
23247.277257,-2967.100024,12442.677520,13150.953010
23247.279833,-861.416136,-5551.348432,8059.026517
23247.282408,2182.254211,-3809.373579,7733.602643
23247.284984,-2392.822600,12366.107197,12806.386555
23247.287560,76.570323,-4364.508422,8384.450390
23247.290136,-57.427742,-4153.940034,8059.026517
23247.292711,-1091.127106,7561.319416,11504.691061
23247.295287,-172.283227,-1703.689691,10911.271056
23247.297863,1129.412267,-3828.516160,8441.878133
23247.300439,-842.273555,631.705166,9590.432981
23247.303014,-1148.554848,3139.383251,10222.138147
23247.305590,-1014.556782,-976.271621,8863.014910
23247.308166,-957.129040,1148.554848,9552.147819
23247.310742,95.712904,2163.111630,9992.427178
23247.313317,248.853550,153.140646,9513.862658
23247.315893,-1454.836141,19.142581,9265.009107
23247.318469,1052.841944,1780.260014,10049.854920
23247.321045,-1014.556782,1627.119368,10145.567824
23247.323620,19.142581,-2048.256146,8537.591037
23247.326196,-535.992262,574.277424,9379.864592
23247.328772,1895.115499,4326.223261,10662.417506
23247.331347,-4000.799387,2335.394858,10183.852986
23247.333923,1837.687757,-7235.895542,7140.182638
23247.336499,2660.818731,10088.140082,12366.107197
23247.339075,-3637.090352,-803.988394,9590.432981
23247.341650,5513.063270,-12289.536874,5857.629725
23247.344226,-3790.230998,13629.517530,13323.236237
23247.346803,267.996131,-3062.812928,9131.011042
23247.349380,2182.254211,-9303.294269,6699.903280
23247.351957,-325.423874,12806.386555,13036.097525
23247.354533,-535.992262,-3292.523898,8575.876198
23247.357110,2009.970984,-6565.905214,7216.752962
23247.359687,95.712904,10815.558152,10662.417506
23247.362264,-2239.681954,4594.219392,11351.550414
23247.364841,2603.390989,-9973.284597,6642.475538
23247.367417,478.564520,4862.215523,10758.130410
23247.369994,-153.140646,4230.510357,10930.413637
23247.372571,-172.283227,-6604.190376,7618.747158
23247.375148,-727.418070,2756.531635,10088.140082
23247.377725,-229.710970,3694.518094,10700.702667
23247.380302,957.129040,-2833.101958,8595.018779
23247.382878,593.420005,-248.853550,9379.864592
23247.385455,765.703232,1933.400661,10356.136213
23247.388032,937.986459,-2641.676150,9073.583299
23247.390609,-784.845813,784.845813,9628.718142
23247.393186,-842.273555,1761.117434,9915.856854
23247.395762,1627.119368,-1129.412267,9379.864592
23247.398339,516.849682,2201.396792,10011.569758
23247.400916,1454.836141,765.703232,9839.286531
23247.403493,-1665.404530,-1091.127106,9016.155557
23247.406070,153.140646,-880.558717,9303.294269
23247.408647,-650.847747,3388.236802,10585.847182
23247.411223,1397.408398,-3675.375514,8748.159426
23247.413800,2565.105827,3158.525832,10279.565890
23247.416377,-5551.348432,1339.980656,9686.145885
23247.418954,4115.654872,-4977.071008,7982.456194
23247.421531,-4307.080680,9590.432981,12002.398162
23247.424107,-2986.242605,6546.762634,11294.122672
23247.426684,2890.529701,-8575.876198,6680.760699
23247.429261,1320.838075,5876.772306,11121.839445
23247.431838,-3292.523898,2986.242605,10585.847182
23247.434415,-497.707101,-10738.987829,6125.625856
23247.436992,-976.271621,9284.151688,11983.255581
23247.439568,-2316.252277,2143.969050,10336.993632
23247.442145,2794.816797,-8020.741355,6680.760699
23247.444722,-1052.841944,9762.716208,11868.400096
23247.447299,-1129.412267,1914.258080,10432.706536
23247.449838,-746.560651,-7714.460062,7082.754896
23247.452377,-440.279358,4977.071008,10604.989763
23247.454916,-114.855485,3426.521963,11370.692995
23247.457455,401.994197,-1320.838075,9379.864592
23247.459994,-555.134843,-2354.537438,8671.589102
23247.462533,-1703.689691,3790.230998,10356.136213
23247.465072,-1837.687757,1416.550979,9609.575562
23247.467611,382.851616,-1301.695494,8863.014910
23247.470149,229.710970,2603.390989,10126.425243
23247.472688,-1416.550979,995.414202,9647.860723
23247.475227,1110.269686,-784.845813,9188.438784
23247.477766,-765.703232,2431.107762,10432.706536
23247.480305,-689.132909,-1301.695494,9073.583299
23247.482844,-459.421939,-1071.984525,8843.872330
23247.485383,-440.279358,5800.201982,10681.560086
23247.487922,-4039.084549,2967.100024,10298.708470
23247.490461,2335.394858,-6891.329088,7293.323285
23247.493000,1473.978722,9360.722011,12270.394293
23247.495539,-3235.096155,-2029.113565,9150.153622
23247.498078,5513.063270,-10394.421374,6412.764568
23247.500617,-3981.656806,13284.951075,13342.378818
23247.503156,803.988394,-4115.654872,8652.446522
23247.505695,1933.400661,-7561.319416,7216.752962
23247.508234,-861.416136,12308.679454,12921.242040
23247.510773,-95.712904,-4823.930362,8039.883936
23247.513312,2067.398726,-4479.363907,7829.315547
23247.515851,-3081.955509,9762.716208,12595.818166
23247.518390,-1186.840010,2450.250342,10662.417506
23247.520929,2775.674216,-7829.315547,7255.038123
23247.523468,210.568389,4862.215523,10834.700733
23247.526007,478.564520,1971.685822,10279.565890
23247.528546,-306.281293,-4460.221326,8116.454259
23247.531085,-650.847747,3005.385186,10317.851051
23247.533624,-172.283227,2067.398726,10126.425243
23247.536163,1378.265818,-2067.398726,8786.444587
23247.538702,1244.267752,421.136778,9590.432981
23247.541241,1818.545176,516.849682,10088.140082
23247.543780,-803.988394,-1205.982590,9379.864592
23247.546319,-1569.691626,-267.996131,9341.579430
23247.548857,497.707101,1129.412267,9896.714274
23247.551404,95.712904,1837.687757,9896.714274
23247.553951,1435.693560,-459.421939,9303.294269
23247.556498,-1052.841944,-937.986459,9131.011042
23247.559044,708.275490,1244.267752,9915.856854
23247.561591,-2737.389054,650.847747,9820.143950
23247.564138,3579.662610,-3369.094221,8786.444587
23247.566685,-1646.261949,3809.373579,10547.562021
23247.569231,-1263.410333,-3369.094221,8307.880067
23247.571778,1933.400661,2277.967115,10011.569758
23247.574325,-7025.327154,4345.365842,10604.989763
23247.576872,2220.539373,-7580.461997,6833.901346
23247.579418,-1607.976787,8346.165229,11389.835576
23247.581965,-918.843878,9877.571693,12308.679454
23247.584512,1454.836141,-8997.012976,7178.467800
23247.587058,574.277424,1378.265818,9686.145885
23247.589605,-4441.078746,8729.016845,12098.111066
23247.592152,1378.265818,-9494.720077,6585.047795
23247.594699,1091.127106,3656.232933,10030.712339
23247.597245,-2488.535504,8556.733618,11887.542677
23247.599792,229.710970,-7886.743290,6929.614250
23247.602339,-727.418070,1761.117434,9877.571693
23247.604886,-1607.976787,5206.781978,11006.983960
23247.607432,95.712904,-5417.350366,7523.034254
23247.609979,19.142581,1684.547110,9667.003304
23247.612526,-1110.269686,4364.508422,10834.700733
23247.615073,-1339.980656,803.988394,9628.718142
23247.617619,-1033.699363,-1569.691626,8633.303941
23247.620166,-478.564520,3579.662610,10317.851051
23247.622713,-191.425808,746.560651,9686.145885
23247.625259,-842.273555,-344.566454,8977.870395
23247.627806,-574.277424,153.140646,9494.720077
23247.630353,-153.140646,937.986459,9801.001370
23247.632900,-0.000000,555.134843,9877.571693
23247.635446,-2124.826469,-114.855485,9207.581365
23247.637993,2239.681954,995.414202,9686.145885
23247.640540,-2392.822600,5474.778109,10738.987829
23247.643087,19.142581,-6508.477472,7389.036189
23247.645633,6680.760699,-4364.508422,8346.165229
23247.648180,-1952.543242,11294.122672,13246.665914
23247.650727,995.414202,-9513.862658,6987.041992
23247.653279,899.701298,-3962.514226,7791.030386
23247.655832,-2450.250342,11294.122672,12997.812363
23247.658384,746.560651,-7676.174901,7561.319416
23247.660936,1550.549045,-516.849682,8958.727814
23247.663489,-803.988394,10279.565890,12634.103328
23247.666041,727.418070,-7752.745224,7312.465866
23247.668594,229.710970,-459.421939,9111.868461
23247.671146,-1244.267752,6393.621987,11715.259450
23247.673698,1493.121302,-5972.485210,8001.598774
23247.676251,1454.836141,-4728.217458,8078.169098
23247.678803,325.423874,3924.229064,10528.419440
23247.681355,-708.275490,1435.693560,10068.997501
23247.683908,306.281293,-2584.248408,8652.446522
23247.686460,-229.710970,1914.258080,9973.284597
23247.689013,1550.549045,1148.554848,9801.001370
23247.691565,784.845813,-2641.676150,8997.012976
23247.694117,191.425808,382.851616,9839.286531
23247.696670,-1148.554848,1148.554848,9973.284597
23247.699222,727.418070,-1167.697429,9207.581365
23247.701774,-133.998066,689.132909,9571.290400
23247.704327,1129.412267,1244.267752,9724.431046
23247.706879,-287.138712,-1512.263883,9245.866526
23247.709432,727.418070,-1722.832272,8977.870395
23247.711984,-2277.967115,3235.096155,10413.563955
23247.714536,2679.961312,-2660.818731,9054.440718
23247.717089,-306.281293,1952.543242,10068.997501
23247.719641,-2756.531635,-1263.410333,8843.872330
23247.722194,3062.812928,1148.554848,9724.431046
23247.724746,-6814.758765,4402.793584,10643.274925
23247.727298,1359.123237,-6719.045861,7121.040058
23247.729851,-1550.549045,6565.905214,10949.556218
23247.732403,-957.129040,4230.510357,10738.987829
23247.734955,2986.242605,-8997.012976,7101.897477
23247.737508,-803.988394,8403.592971,11868.400096
23247.740060,-3828.516160,9418.149754,12346.964616
23247.742613,459.421939,-7714.460062,7159.325219
23247.745165,1588.834206,1129.412267,9322.436850
23247.747717,-2297.109696,9552.147819,12098.111066
23247.750270,-363.709035,-6317.051664,7503.891674
23247.752822,-669.990328,-516.849682,9265.009107
23247.755379,-803.988394,5647.061336,11236.694930
23247.757937,344.566454,-2603.390989,8709.874264
23247.760494,-516.849682,-516.849682,9188.438784
23247.763051,-689.132909,3158.525832,10490.134278
23247.765609,-823.130974,-76.570323,9379.864592
23247.768166,-861.416136,-363.709035,8977.870395
23247.770723,-497.707101,2622.533570,9552.147819
23247.773280,-2086.541307,2450.250342,9915.856854
23247.775838,918.843878,-1703.689691,9073.583299
23247.778395,516.849682,1799.402595,9973.284597
23247.780952,-669.990328,1703.689691,10107.282662
23247.783510,-1512.263883,-2833.101958,8709.874264
23247.786067,1244.267752,3464.807125,10356.136213
23247.788624,-4268.795518,2679.961312,10049.854920
23247.791181,3158.525832,-5379.065205,7523.034254
23247.793739,114.855485,9552.147819,12136.396227
23247.796296,-2086.541307,-4555.934230,8441.878133
23247.798853,4938.785846,-7637.889739,7274.180704
23247.801411,-4326.223261,12634.103328,13476.376883
23247.803968,-421.136778,5225.924558,11370.692995
23247.806525,1933.400661,-11064.411702,6412.764568
23247.809083,440.279358,7044.469734,11140.982026
23247.811640,-1205.982590,4268.795518,10777.272990
23247.814197,1531.406464,-8288.737486,6987.041992
23247.816754,-765.703232,4957.928427,11006.983960
23247.819312,-1110.269686,2794.816797,10604.989763
23247.821869,1397.408398,-7523.034254,7274.180704
23247.824426,1205.982590,4115.654872,10681.560086
23247.826984,210.568389,2488.535504,10432.706536
23247.829541,382.851616,-3847.658741,8212.167163
23247.832098,-1263.410333,1550.549045,9915.856854
23247.834655,95.712904,2603.390989,10298.708470
23247.837216,1569.691626,-535.992262,9399.007173
23247.839777,669.990328,-1071.984525,9188.438784
23247.842338,-325.423874,555.134843,9954.142016
23247.844899,-38.285162,0.000000,9801.001370
23247.847460,-76.570323,-708.275490,9322.436850
23247.850021,478.564520,1378.265818,9571.290400
23247.852582,2277.967115,555.134843,9781.858789
23247.855143,-1416.550979,248.853550,9533.005238
23247.857704,440.279358,-2277.967115,8824.729749
23247.860265,-1359.123237,3541.377448,10413.563955
23247.862826,1167.697429,-1607.976787,9399.007173
23247.865387,2105.683888,1684.547110,9418.149754
23247.867948,-4900.500685,2775.674216,10126.425243
23247.870509,1339.980656,-4498.506488,8193.024582
23247.873070,-689.132909,7178.467800,11370.692995
23247.875631,-2737.389054,2335.394858,10030.712339
23247.878192,2469.392923,-6527.620053,7082.754896
23247.880753,-267.996131,8729.016845,11830.114934
23247.883314,-1167.697429,-1607.976787,9360.722011
23247.885875,497.707101,-7427.321350,6987.041992
23247.888436,-2641.676150,10279.565890,12500.105262
23247.890997,-1186.840010,-2163.111630,9073.583299
23247.893558,2967.100024,-4517.649069,7714.460062
23247.896119,-1378.265818,9915.856854,12002.398162
23247.898680,-1856.830338,5091.926493,11389.835576
23247.901240,-1205.982590,-5647.061336,7963.313613
23247.903801,-325.423874,1397.408398,9667.003304
23247.906362,-229.710970,4785.645200,10758.130410
23247.908923,306.281293,-3081.955509,8499.305875
23247.911484,-114.855485,803.988394,9571.290400
23247.914045,-1473.978722,4287.938099,10700.702667
23247.916606,-1129.412267,-2086.541307,8614.161360
23247.919167,-1799.402595,861.416136,9207.581365
23247.921728,842.273555,3369.094221,10604.989763
23247.924289,995.414202,-133.998066,9686.145885
23247.926850,-650.847747,-1129.412267,8824.729749
23247.929411,-1722.832272,574.277424,9245.866526
23247.931972,1129.412267,3426.521963,10566.704602
23247.934533,-3694.518094,1282.552914,9705.288466
23247.937094,2852.244539,-4460.221326,7752.745224
23247.939626,708.275490,9609.575562,12270.394293
23247.942157,-2220.539373,-4689.932296,8441.878133
23247.944689,4977.071008,-7580.461997,7389.036189
23247.947220,-4345.365842,12519.247843,13284.951075
23247.949752,1225.125171,-6106.483275,8039.883936
23247.952284,1588.834206,-5302.494882,7848.458128
23247.954815,-210.568389,11006.983960,12500.105262
23247.957347,229.710970,-5283.352301,7810.172966
23247.959878,1435.693560,-2201.396792,8518.448456
23247.962410,-708.275490,4249.652938,10815.558152
23247.964942,-1588.834206,2622.533570,10509.276859
23247.967473,1627.119368,-6948.756830,7503.891674
23247.970005,1454.836141,4115.654872,10662.417506
23247.972536,-210.568389,1703.689691,10126.425243
23247.975068,727.418070,-4000.799387,8154.739421
23247.977599,-957.129040,3388.236802,10490.134278
23247.980131,669.990328,880.558717,9934.999435
23247.982663,1282.552914,-2679.961312,8614.161360
23247.985194,19.142581,1971.685822,9992.427178
23247.987726,172.283227,-57.427742,9762.716208
23247.990257,1129.412267,-1416.550979,9379.864592
23247.992789,-803.988394,1110.269686,9571.290400
23247.995321,-0.000000,229.710970,9341.579430
23247.997852,-114.855485,-1722.832272,9016.155557
23248.000384,1493.121302,1952.543242,10107.282662
23248.002915,-1646.261949,899.701298,9762.716208
23248.005447,3081.955509,-2871.387120,8709.874264
23248.007979,-2928.814862,2737.389054,10183.852986
23248.010510,248.853550,-2545.963246,8633.303941
23248.013042,229.710970,3158.525832,10336.993632
23248.015573,-5455.635528,421.136778,9494.720077
23248.018105,3311.666478,-3847.658741,7982.456194
23248.020637,-2660.818731,8901.300072,11657.831707
23248.023168,248.853550,-2277.967115,11140.982026
23248.025700,2526.820666,-8059.026517,7408.178770
23248.028231,-765.703232,6202.196179,11274.980091
23248.030763,-3847.658741,2009.970984,10145.567824
23248.033295,1282.552914,-7312.465866,7178.467800
23248.035826,-727.418070,6374.479406,11140.982026
23248.038358,-1033.699363,2947.957443,10298.708470
23248.040897,153.140646,-4938.785846,7446.463931
23248.043437,-957.129040,3885.943902,10585.847182
23248.045976,-880.558717,1856.830338,10202.995566
23248.048516,-535.992262,-2699.103893,8537.591037
23248.051055,-727.418070,1875.972918,9820.143950
23248.053594,478.564520,2431.107762,10222.138147
23248.056134,-382.851616,1435.693560,9954.142016
23248.058673,-1205.982590,-1071.984525,8939.585234
23248.061213,-2201.396792,2565.105827,9705.288466
23248.063752,-191.425808,267.996131,9513.862658
23248.066292,1512.263883,-363.709035,9437.292334
23248.068831,421.136778,2699.103893,10279.565890
23248.071371,-2220.539373,-1052.841944,9284.151688
23248.073910,995.414202,612.562586,9686.145885
23248.076449,-4058.227130,3388.236802,10279.565890
23248.078989,2565.105827,-3905.086483,8020.741355
23248.081528,612.562586,6719.045861,11121.839445
23248.084068,-1531.406464,-3215.953574,8748.159426
23248.086607,3962.514226,-10298.708470,6833.901346
23248.089147,-2009.970984,5225.924558,10872.985894
23248.091686,-344.566454,3522.234867,10758.130410
23248.094226,2029.113565,-9054.440718,7025.327154
23248.096765,593.420005,6221.338760,10930.413637
23248.099305,-689.132909,2890.529701,10298.708470
23248.101844,1301.695494,-6163.911018,7465.606512
23248.104383,-995.414202,4000.799387,10738.987829
23248.106923,-689.132909,1837.687757,10241.280728
23248.109462,1359.123237,-4938.785846,8001.598774
23248.112002,1454.836141,3158.525832,10624.132344
23248.114541,191.425808,957.129040,9915.856854
23248.117081,689.132909,-2794.816797,8671.589102
23248.119620,191.425808,-267.996131,9399.007173
23248.122160,-574.277424,2909.672282,10394.421374
23248.124699,497.707101,-2201.396792,8824.729749
23248.127238,1110.269686,-612.562586,9341.579430
23248.129778,708.275490,2622.533570,10604.989763
23248.132317,-57.427742,-2392.822600,9016.155557
23248.134857,114.855485,248.853550,9360.722011
23248.137396,995.414202,2335.394858,10279.565890
23248.139936,-229.710970,19.142581,9533.005238
23248.142481,382.851616,-2373.680019,8824.729749
23248.145027,880.558717,4307.080680,10719.845248
23248.147572,-344.566454,-1741.974853,9341.579430
23248.150117,3426.521963,-3388.236802,8537.591037
23248.152663,-3407.379382,5513.063270,10987.841379
23248.155208,-2048.256146,-3005.385186,8709.874264
23248.157754,2737.389054,421.136778,9226.723946
23248.160299,-2967.100024,8327.022648,11734.402030
23248.162845,1741.974853,-6125.625856,7446.463931
23248.165390,497.707101,1684.547110,9609.575562
23248.167935,-2852.244539,5436.492947,11083.554283
23248.170481,-631.705166,-7944.171032,7101.897477
23248.173026,-918.843878,4498.506488,10777.272990
23248.175572,-1512.263883,3732.803256,10853.843314
23248.178117,1875.972918,-5302.494882,7618.747158
23248.180663,-823.130974,4632.504554,10068.997501
23248.183208,-1780.260014,4881.358104,10777.272990
23248.185754,-1225.125171,-1646.261949,9016.155557
23248.188299,-497.707101,-727.418070,9073.583299
23248.190844,-957.129040,3713.660675,10470.991698
23248.193390,823.130974,-861.416136,9322.436850
23248.195935,-38.285162,0.000000,9226.723946
23248.198481,-1761.117434,2852.244539,10030.712339
23248.201026,-2450.250342,1263.410333,9399.007173
23248.203572,-631.705166,-1799.402595,8863.014910
23248.206117,727.418070,1435.693560,9839.286531
23248.208662,765.703232,2718.246474,10279.565890
23248.211208,-2029.113565,-2124.826469,8958.727814
23248.213753,1339.980656,-4039.084549,8461.020714
23248.216299,-1014.556782,7274.180704,11255.837510
23248.218844,-2086.541307,-3005.385186,8327.022648
23248.221390,7025.327154,-1071.984525,9054.440718
23248.223935,-3139.383251,9188.438784,12614.960747
23248.226481,2852.244539,-10375.278794,6814.758765
23248.229026,-899.701298,612.562586,9284.151688
23248.231571,-1148.554848,8078.169098,12155.538808
23248.234117,1588.834206,-9284.151688,7101.897477
23248.236662,1225.125171,2220.539373,9801.001370
23248.239208,-497.707101,7121.040058,11676.974288
23248.241753,1033.699363,-6527.620053,7523.034254
23248.244304,229.710970,593.420005,7810.172966
23248.246854,-861.416136,4938.785846,10930.413637
23248.249405,-401.994197,-210.568389,9552.147819
23248.251956,1990.828403,-4364.508422,8097.311678
23248.254506,1722.832272,4498.506488,10930.413637
23248.257057,-1780.260014,1052.841944,9973.284597
23248.259608,1225.125171,-4670.789715,7963.313613
23248.262158,-669.990328,5398.207786,10987.841379
23248.264709,-95.712904,-267.996131,9494.720077
23248.267260,2182.254211,-5455.635528,7982.456194
23248.269810,516.849682,5225.924558,11294.122672
23248.272361,-861.416136,-191.425808,9686.145885
23248.274912,1397.408398,-4287.938099,8346.165229
23248.277462,-1110.269686,1933.400661,9801.001370
23248.280013,133.998066,1837.687757,10030.712339
23248.282564,535.992262,-669.990328,9092.725880
23248.285114,1627.119368,-957.129040,9533.005238
23248.287665,1225.125171,4977.071008,11121.839445
23248.290216,-5953.342629,-3598.805190,8231.309744
23248.292766,4230.510357,-2986.242605,8403.592971
23248.295317,-4575.076811,11121.839445,12614.960747
23248.297868,-516.849682,-6699.903280,7389.036189
23248.300418,823.130974,-1186.840010,8633.303941
23248.302969,-1952.543242,12997.812363,13227.523333
23248.305520,1435.693560,-8767.302006,7350.751027
23248.308070,727.418070,-9762.716208,6297.909083
23248.310621,-1895.115499,9609.575562,12232.109131
23248.313172,-1014.556782,421.136778,9973.284597
23248.315722,2258.824534,-6355.336826,7235.895542
23248.318273,-1129.412267,8250.452325,11408.978157
23248.320824,-1186.840010,880.558717,9839.286531
23248.323374,-325.423874,-4862.215523,7963.313613
23248.325925,-1033.699363,4421.936165,10432.706536
23248.328476,-976.271621,1091.127106,9762.716208
23248.331026,497.707101,-2813.959378,8537.591037
23248.333577,-1033.699363,3598.805190,10490.134278
23248.336127,-1397.408398,1244.267752,9647.860723
23248.338678,-459.421939,-76.570323,9016.155557
23248.341229,-95.712904,2009.970984,10049.854920
23248.343779,-1148.554848,38.285162,9284.151688
23248.346334,1014.556782,-1914.258080,8824.729749
23248.348888,-3445.664544,3809.373579,10375.278794
23248.351443,-229.710970,-3866.801322,8595.018779
23248.353997,1473.978722,3388.236802,10336.993632
23248.356552,-4402.793584,2009.970984,9762.716208
23248.359106,7082.754896,-4517.649069,8116.454259
23248.361661,-1052.841944,8288.737486,12098.111066
23248.364215,172.283227,-5761.916821,8231.309744
23248.366770,229.710970,-4919.643266,7810.172966
23248.369324,-1263.410333,8997.012976,12270.394293
23248.371879,574.277424,4517.649069,11083.554283
23248.374433,1646.261949,-7369.893608,7044.469734
23248.376988,823.130974,5532.205851,10911.271056
23248.379542,-918.843878,2584.248408,10528.419440
23248.382096,823.130974,-5953.342629,7733.602643
23248.384651,-440.279358,2220.539373,10126.425243
23248.387205,-382.851616,2354.537438,10298.708470
23248.389760,1741.974853,-3024.527766,8633.303941
23248.392314,421.136778,1741.974853,10011.569758
23248.394869,-650.847747,1167.697429,10068.997501
23248.397423,708.275490,-1569.691626,8997.012976
23248.399978,-421.136778,1569.691626,9954.142016
23248.402532,1071.984525,-497.707101,9513.862658
23248.405087,1148.554848,-1895.115499,9226.723946
23248.407641,-19.142581,1569.691626,10145.567824
23248.410196,267.996131,-38.285162,9590.432981
23248.412750,-1167.697429,-2086.541307,8652.446522
23248.415305,803.988394,1148.554848,9609.575562
23248.417859,-1416.550979,3177.668413,10317.851051
23248.420413,3235.096155,-3081.955509,8748.159426
23248.422968,-2105.683888,1684.547110,9896.714274
23248.425522,-1531.406464,-1512.263883,9016.155557
23248.428077,803.988394,2411.965181,10222.138147
23248.430631,-5455.635528,459.421939,9513.862658
23248.433186,3215.953574,-4134.797453,7771.887805
23248.435740,-612.562586,3637.090352,10145.567824
23248.438295,-1646.261949,7446.463931,11542.976222
23248.440849,2316.252277,-7925.028451,7427.321350
23248.443404,-861.416136,4192.225195,10394.421374
23248.445958,-3656.232933,3445.664544,10394.421374
23248.448515,1148.554848,-6431.907149,7523.034254
23248.451072,-612.562586,4249.652938,10547.562021
23248.453629,-593.420005,3694.518094,10509.276859
23248.456187,19.142581,-2718.246474,8307.880067
23248.458744,-765.703232,1761.117434,9858.429112
23248.461301,-133.998066,1473.978722,9915.856854
23248.463858,-784.845813,-650.847747,9035.298138
23248.466415,-1225.125171,593.420005,9494.720077
23248.468972,-746.560651,746.560651,9667.003304
23248.471529,-1875.972918,2641.676150,9896.714274
23248.474086,-38.285162,-440.279358,8977.870395
23248.476644,918.843878,1761.117434,9839.286531
23248.479201,-1627.119368,1971.685822,9896.714274
23248.481758,-76.570323,-3617.947771,8365.307810
23248.484315,-1799.402595,2756.531635,10049.854920
23248.486872,-2297.109696,-1014.556782,9322.436850
23248.489429,2775.674216,306.281293,9571.290400
23248.491986,-5149.354235,4441.078746,10470.991698
23248.494543,4709.074877,-6202.196179,7637.889739
23248.497100,1684.547110,5915.057467,11198.409768
23248.499658,-3809.373579,7657.032320,12270.394293
23248.502215,976.271621,-7848.458128,7427.321350
23248.504772,669.990328,-765.703232,9303.294269
23248.507329,344.566454,8652.446522,12117.253646
23248.509886,516.849682,-6393.621987,7484.749093
23248.512443,1588.834206,325.423874,9418.149754
23248.515000,-1301.695494,6068.198114,11581.261384
23248.517557,823.130974,-4747.360038,8269.594906
23248.520115,210.568389,-1837.687757,8824.729749
23248.522672,669.990328,4766.502619,11083.554283
23248.525229,574.277424,-976.271621,9284.151688
23248.527786,172.283227,-2584.248408,8556.733618
23248.530343,-76.570323,-38.285162,9513.862658
23248.532900,421.136778,3024.527766,10317.851051
23248.535457,631.705166,-1397.408398,9322.436850
23248.538014,1665.404530,-2469.392923,8920.442653
23248.540572,-382.851616,2852.244539,10490.134278
23248.543129,-440.279358,-957.129040,9284.151688
23248.545686,1205.982590,-3005.385186,8671.589102
23248.548243,727.418070,5704.489078,11160.124606
23248.550803,-957.129040,-382.851616,9494.720077
23248.553362,2469.392923,-2277.967115,8518.448456
23248.555922,-1186.840010,2220.539373,10145.567824
23248.558482,2967.100024,976.271621,9915.856854
23248.561042,-4881.358104,0.000000,9418.149754
23248.563601,-3732.803256,-4498.506488,8135.596840
23248.566161,3866.801322,1186.840010,9399.007173
23248.568721,-3043.670347,9724.431046,12098.111066
23248.571281,995.414202,-7082.754896,7025.327154
23248.573840,344.566454,-287.138712,9111.868461
23248.576400,-2986.242605,8595.018779,12136.396227
23248.578960,-937.986459,-8614.161360,6814.758765
23248.581520,38.285162,1627.119368,9762.716208
23248.584079,-1665.404530,7293.323285,11944.970419
23248.586639,1148.554848,-5225.924558,7810.172966
23248.589199,-631.705166,1244.267752,9073.583299
23248.591759,-1205.982590,4823.930362,10968.698798
23248.594318,-976.271621,1225.125171,10030.712339
23248.596878,-555.134843,-2431.107762,8633.303941
23248.599438,-1071.984525,2182.254211,9896.714274
23248.601998,-631.705166,1780.260014,9896.714274
23248.604557,-1282.552914,-95.712904,9092.725880
23248.607117,-344.566454,210.568389,9341.579430
23248.609677,-95.712904,2641.676150,10222.138147
23248.612237,-1397.408398,1301.695494,9705.288466
23248.614796,-765.703232,-3541.377448,8403.592971
23248.617356,-727.418070,3139.383251,10260.423309
23248.619916,-3369.094221,-133.998066,9494.720077
23248.622476,3311.666478,-1531.406464,8939.585234
23248.625036,-4134.797453,6049.055533,11064.411702
23248.627595,-2124.826469,-1990.828403,8997.012976
23248.630155,4287.938099,-4957.928427,8059.026517
23248.632715,-3560.520029,8595.018779,12327.822035
23248.635275,689.132909,-4996.213589,8327.022648
23248.637834,1282.552914,-4402.793584,8307.880067
23248.640394,229.710970,9303.294269,12117.253646
23248.642954,-57.427742,-4153.940034,8154.739421
23248.645514,1703.689691,-2297.109696,8518.448456
23248.648073,-1205.982590,6317.051664,11638.689126
23248.650633,669.990328,-2986.242605,8863.014910
23248.653194,612.562586,-3139.383251,8461.020714
23248.655756,631.705166,4632.504554,11026.126541
23248.658317,306.281293,3177.668413,10547.562021
23248.660879,-153.140646,-2699.103893,8805.587168
23248.663440,38.285162,344.566454,9475.577496
23248.666001,267.996131,2852.244539,10375.278794
23248.668563,1320.838075,-2297.109696,9016.155557
23248.671124,842.273555,-1512.263883,9188.438784
23248.673685,-287.138712,2603.390989,10413.563955
23248.676247,1493.121302,-1205.982590,9437.292334
23248.678808,-1761.117434,-861.416136,8997.012976
23248.681369,421.136778,440.279358,9322.436850
23248.683931,-937.986459,2986.242605,10202.995566
23248.686492,2450.250342,-1895.115499,9245.866526
23248.689054,-153.140646,2201.396792,10088.140082
23248.691615,-5608.776174,650.847747,9494.720077
23248.694176,3388.236802,-3579.662610,8537.591037
23248.696738,-3196.810994,7561.319416,11638.689126
23248.699299,-1282.552914,-1933.400661,8595.018779
23248.701860,880.558717,-2469.392923,8135.596840
23248.704422,-1473.978722,10241.280728,12270.394293
23248.706983,1320.838075,-4555.934230,8480.163294
23248.709545,-57.427742,-2641.676150,8480.163294
23248.712106,-3005.385186,7274.180704,11542.976222
23248.714667,-133.998066,-4077.369710,8346.165229
23248.717229,363.709035,-631.705166,8977.870395
23248.719790,-708.275490,6278.766502,11140.982026
23248.722351,-172.283227,3081.955509,10432.706536
23248.724913,-1186.840010,-2450.250342,8767.302006
23248.727474,-287.138712,-38.285162,9188.438784
23248.730035,-861.416136,2890.529701,10164.710405
23248.732597,-1129.412267,-287.138712,9265.009107
23248.735158,-1148.554848,306.281293,9245.866526
23248.737720,287.138712,2545.963246,10183.852986
23248.740281,38.285162,535.992262,9456.434915
23248.742842,-727.418070,669.990328,9379.864592
23248.745404,-1512.263883,-880.558717,9245.866526
23248.747965,-1244.267752,1837.687757,9934.999435
23248.750526,-2431.107762,-1588.834206,8901.300072
23248.753088,3311.666478,1148.554848,8633.303941
23248.755651,19.142581,6661.618118,11370.692995
23248.758214,-1397.408398,-4823.930362,8097.311678
23248.760777,3866.801322,-3330.809059,8422.735552
23248.763340,-3828.516160,9399.007173,12500.105262
23248.765903,918.843878,-6987.041992,7733.602643
23248.768466,1550.549045,-3043.670347,8633.303941
23248.771029,287.138712,9896.714274,12423.534939
23248.773592,-229.710970,-5398.207786,7791.030386
23248.776155,1607.976787,-1703.689691,8748.159426
23248.778718,-957.129040,6814.758765,11849.257515
23248.781280,861.416136,-3924.229064,8575.876198
23248.783843,669.990328,-2871.387120,8575.876198
23248.786406,1033.699363,1780.260014,9973.284597
23248.788969,1014.556782,3962.514226,10872.985894
23248.791532,57.427742,-2507.678085,8748.159426
23248.794095,-114.855485,-593.420005,9092.725880
23248.796658,344.566454,2986.242605,10490.134278
23248.799221,1263.410333,-1837.687757,9265.009107
23248.801784,325.423874,-1703.689691,9054.440718
23248.804347,-133.998066,2105.683888,10222.138147
23248.806910,689.132909,-1435.693560,9341.579430
23248.809473,1205.982590,1033.699363,9590.432981
23248.812036,-612.562586,1531.406464,9877.571693
23248.814599,1588.834206,38.285162,9475.577496
23248.817162,-2507.678085,-765.703232,9245.866526
23248.819725,1627.119368,-803.988394,9131.011042
23248.822288,-2124.826469,5072.783912,11064.411702
23248.824851,-3254.238736,-4709.074877,8135.596840
23248.827414,3579.662610,497.707101,9245.866526
23248.829977,-3005.385186,10049.854920,12117.253646
23248.832540,1225.125171,-7006.184573,7082.754896
23248.835103,-267.996131,-191.425808,9035.298138
23248.837666,-1971.685822,8288.737486,12098.111066
23248.840229,-1186.840010,-7982.456194,7063.612315
23248.842792,-0.000000,1588.834206,9628.718142
23248.845355,-1416.550979,6623.332957,11657.831707
23248.847918,1033.699363,-4555.934230,8097.311678
23248.850481,287.138712,-3637.090352,7848.458128
23248.853044,-899.701298,3905.086483,10490.134278
23248.855607,-1244.267752,1244.267752,9954.142016
23248.858171,-727.418070,-2507.678085,8480.163294
23248.860734,-1512.263883,2565.105827,9992.427178
23248.863298,-1780.260014,2316.252277,9915.856854
23248.865862,861.416136,-2411.965181,8575.876198
23248.868426,861.416136,3062.812928,10260.423309
23248.870990,-2431.107762,2699.103893,10107.282662
23248.873554,-803.988394,-4670.789715,7982.456194
23248.876118,-2297.109696,3062.812928,10107.282662
23248.878681,-1148.554848,-38.285162,9571.290400
23248.881245,3560.520029,-1588.834206,8958.727814
23248.883809,-3273.381317,3235.096155,10336.993632
23248.886373,1646.261949,-4709.074877,8193.024582
23248.888937,2852.244539,2450.250342,10241.280728
23248.891501,-3349.951640,2967.100024,10604.989763
23248.894064,1071.984525,-8173.882002,7178.467800
23248.896628,210.568389,4498.506488,11064.411702
23248.899192,995.414202,4096.512291,11006.983960
23248.901756,650.847747,-6967.899411,7101.897477
23248.904320,1186.840010,4996.213589,10758.130410
23248.906884,-1282.552914,3273.381317,10815.558152
23248.909447,1225.125171,-6872.186507,7523.034254
23248.912011,-133.998066,1435.693560,7982.456194
23248.914575,-0.000000,4613.361973,10911.271056
23248.917139,267.996131,-95.712904,9705.288466
23248.919703,478.564520,-2756.531635,8595.018779
23248.922267,-172.283227,2737.389054,10145.567824
23248.924831,803.988394,689.132909,9801.001370
23248.927394,995.414202,-2986.242605,8843.872330
23248.929958,172.283227,976.271621,9934.999435
23248.932522,19.142581,1052.841944,10068.997501
23248.935086,-746.560651,-3005.385186,8518.448456
23248.937650,1339.980656,784.845813,9437.292334
23248.940214,-1397.408398,3656.232933,10490.134278
23248.942777,2526.820666,-2603.390989,8805.587168
23248.945341,-1148.554848,-631.705166,9284.151688
23248.947905,-2316.252277,-1531.406464,8805.587168
23248.950469,1588.834206,3962.514226,10662.417506
23248.953033,-5704.489078,-133.998066,9379.864592
23248.955597,2469.392923,-5915.057467,7197.610381
23248.958161,-2182.254211,9820.143950,11887.542677
23248.960725,-1033.699363,1225.125171,9743.573627
23248.963289,861.416136,-7791.030386,7101.897477
23248.965853,-1052.841944,8154.739421,11830.114934
23248.968417,-3177.668413,-669.990328,9399.007173
23248.970981,669.990328,-6144.768437,7255.038123
23248.973545,-1033.699363,7063.612315,11389.835576
23248.976109,-1339.980656,1703.689691,11676.974288
23248.978673,-708.275490,-2871.387120,8441.878133
23248.981237,-325.423874,-1359.123237,8824.729749
23248.983801,-593.420005,4594.219392,10700.702667
23248.986365,-1493.121302,-842.273555,9265.009107
23248.988929,-1703.689691,-1244.267752,8690.731683
23248.991493,478.564520,4134.797453,10585.847182
23248.994057,650.847747,1856.830338,10145.567824
23248.996621,-727.418070,-2584.248408,8365.307810
23248.999186,-95.712904,2201.396792,9992.427178
23249.001750,-3656.232933,3215.953574,10413.563955
23249.004314,2201.396792,-4153.940034,8422.735552
23249.006878,-1186.840010,4383.651003,10451.849117
23249.009442,-3235.096155,1971.685822,10049.854920
23249.012006,6508.477472,-2182.254211,9265.009107
23249.014570,-1722.832272,5608.776174,11274.980091
23249.017134,650.847747,-6355.336826,7561.319416
23249.019698,-210.568389,-1569.691626,8671.589102
23249.022262,-421.136778,7733.602643,12117.253646
23249.024826,1359.123237,-6814.758765,7982.456194
23249.027390,1512.263883,-803.988394,8939.585234
23249.029954,-1263.410333,9169.296203,12136.396227
23249.032518,-267.996131,-6029.912952,7791.030386
23249.035082,1531.406464,-2775.674216,8633.303941
23249.037646,-957.129040,6833.901346,11791.829773
23249.040211,-229.710970,-3196.810994,10930.413637
23249.042775,516.849682,-5800.201982,7982.456194
23249.045339,957.129040,1320.838075,9781.858789
23249.047903,-191.425808,4211.367776,10643.274925
23249.050467,880.558717,-3598.805190,8365.307810
23249.053031,727.418070,-497.707101,9475.577496
23249.055595,-19.142581,3273.381317,10777.272990
23249.058159,1129.412267,-2852.244539,8901.300072
23249.060723,-1071.984525,-1703.689691,8863.014910
23249.063262,689.132909,2622.533570,10068.997501
23249.065802,-1186.840010,1167.697429,9743.573627
23249.068341,2794.816797,-2297.109696,8805.587168
23249.070880,-2392.822600,1607.976787,9915.856854
23249.073419,-3311.666478,-1378.265818,8939.585234
23249.075958,2450.250342,1531.406464,9915.856854
23249.078498,-6202.196179,2411.965181,9915.856854
23249.081037,1799.402595,-6240.481341,7101.897477
23249.083576,-1646.261949,7350.751027,11179.267187
23249.086115,-1416.550979,4230.510357,10643.274925
23249.088654,937.986459,-8614.161360,6948.756830
23249.091193,-497.707101,6336.194245,11198.409768
23249.093733,-3464.807125,2143.969050,10145.567824
23249.096272,440.279358,-7350.751027,6967.899411
23249.098811,-574.277424,5972.485210,11121.839445
23249.101350,-823.130974,3981.656806,10777.272990
23249.103889,38.285162,-1359.123237,9169.296203
23249.106429,-650.847747,-3254.238736,8154.739421
23249.108968,-574.277424,4421.936165,10566.704602
23249.111507,-2277.967115,1091.127106,9647.860723
23249.114046,-497.707101,-2297.109696,8614.161360
23249.116585,-38.285162,2909.672282,10375.278794
23249.119125,421.136778,2297.109696,10107.282662
23249.121664,-363.709035,-1244.267752,8786.444587
23249.124203,-1837.687757,153.140646,9379.864592
23249.126742,-2373.680019,2660.818731,10088.140082
23249.129281,-1607.976787,-2718.246474,8556.733618
23249.131820,3062.812928,2584.248408,9915.856854
23249.134360,-4249.652938,2947.957443,11121.839445
23249.136899,-229.710970,-6699.903280,7810.172966
23249.139438,3235.096155,-803.988394,9341.579430
23249.141977,-3866.801322,7676.174901,12002.398162
23249.144516,803.988394,-8499.305875,7063.612315
23249.147056,1339.980656,478.564520,9705.288466
23249.149595,937.986459,9035.298138,12327.822035
23249.152134,-0.000000,-7771.887805,7044.469734
23249.154673,2277.967115,1359.123237,9590.432981
23249.157212,-1837.687757,7331.608446,12098.111066
23249.159752,1225.125171,-7542.176835,7503.891674
23249.162291,593.420005,-1282.552914,8786.444587
23249.164834,765.703232,7791.030386,11925.827838
23249.167378,478.564520,3120.240670,10949.556218
23249.169921,382.851616,-5379.065205,7963.313613
23249.172465,861.416136,1952.543242,9858.429112
23249.175008,-133.998066,3598.805190,10509.276859
23249.177552,306.281293,-4575.076811,8231.309744
23249.180095,1014.556782,-287.138712,9609.575562
23249.182639,-1186.840010,2335.394858,10470.991698
23249.185182,1378.265818,-1914.258080,8863.014910
23249.187726,-287.138712,803.988394,9667.003304
23249.190269,1799.402595,2431.107762,10107.282662
23249.192813,-1799.402595,-2392.822600,8843.872330
23249.195356,3024.527766,669.990328,9437.292334
23249.197900,-4039.084549,5130.211654,11389.835576
23249.200443,-4785.645200,-2086.541307,8958.727814
23249.202987,3617.947771,-4555.934230,7637.889739
23249.205530,-2603.390989,11542.976222,12442.677520
23249.208074,172.283227,-2813.959378,8422.735552
23249.210617,306.281293,-5876.772306,7427.321350
23249.213161,-976.271621,10049.854920,12500.105262
23249.215704,-2718.246474,-4249.652938,8288.737486
23249.218248,976.271621,-4249.652938,7886.743290
23249.220792,-1244.267752,9284.151688,12155.538808
23249.223335,76.570323,-1282.552914,9131.011042
23249.225879,-1052.841944,-4153.940034,7714.460062
23249.228422,-784.845813,4728.217458,10624.132344
23249.230966,-727.418070,4996.213589,10777.272990
23249.233509,-2641.676150,-1359.123237,8824.729749
23249.236053,574.277424,-765.703232,9131.011042
23249.238596,344.566454,5340.780043,11083.554283
23249.241140,19.142581,-1186.840010,8920.442653
23249.243683,650.847747,-1091.127106,8824.729749
23249.246227,-2890.529701,4211.367776,10872.985894
23249.248770,-1033.699363,-497.707101,9360.722011
23249.251314,-2163.111630,-2507.678085,8461.020714
23249.253857,3349.951640,4268.795518,10528.419440
23249.256401,-3101.098090,3177.668413,10394.421374
23249.258944,2029.113565,-9915.856854,6585.047795
23249.261488,3790.230998,-10432.706536,8059.026517
23249.264031,-3541.377448,11619.546546,13055.240106
23249.266578,325.423874,-6451.049730,7637.889739
23249.269125,2124.826469,-5953.342629,7618.747158
23249.271671,842.273555,12232.109131,13131.810429
23249.274218,-1512.263883,-4957.928427,7944.171032
23249.276765,2660.818731,-4938.785846,7695.317482
23249.279312,-1167.697429,10126.425243,12844.671717
23249.281858,727.418070,-4345.365842,8729.016845
23249.284405,727.418070,-5953.342629,7178.467800
23249.286952,267.996131,7025.327154,11523.833642
23249.289499,689.132909,421.136778,10260.423309
23249.292045,535.992262,-5091.926493,8556.733618
23249.294592,976.271621,-1435.693560,8920.442653
23249.297139,-0.000000,4862.215523,10987.841379
23249.299686,459.421939,-1856.830338,9207.581365
23249.302232,2890.529701,-4000.799387,8671.589102
23249.304779,-880.558717,6049.055533,11370.692995
23249.307326,-421.136778,-1971.685822,9016.155557
23249.309873,401.994197,-1856.830338,8441.878133
23249.312419,2009.970984,3273.381317,10662.417506
23249.314966,-899.701298,2411.965181,10222.138147
23249.317513,-4039.084549,-6068.198114,7274.180704
23249.320060,3292.523898,3751.945837,10509.276859
23249.322606,-6393.621987,5800.201982,11236.694930
23249.325153,-1837.687757,-3694.518094,8173.882002
23249.327700,1282.552914,-5130.211654,7255.038123
23249.330247,-1244.267752,13246.665914,13208.380752
23249.332793,38.285162,-4019.941968,8595.018779
23249.335340,861.416136,-7082.754896,7235.895542
23249.337887,-1971.685822,11294.122672,12806.386555
23249.340434,-2220.539373,-3101.098090,8652.446522
23249.342980,1531.406464,-5570.491013,7389.036189
23249.345527,-1741.974853,9226.723946,12002.398162
23249.348074,-631.705166,574.277424,9820.143950
23249.350621,-803.988394,-4785.645200,7886.743290
23249.353167,-880.558717,5072.783912,10585.847182
23249.355714,-1818.545176,2105.683888,11217.552349
23249.358261,114.855485,-1933.400661,8958.727814
23249.360808,401.994197,-2086.541307,8575.876198
23249.363354,-440.279358,6221.338760,11064.411702
23249.365901,-2297.109696,-842.273555,9418.149754
23249.368427,-1320.838075,-2488.535504,8480.163294
23249.370953,-2067.398726,2239.681954,10068.997501
23249.373478,2622.533570,3292.523898,10356.136213
23249.376004,-3675.375514,-1378.265818,8671.589102
23249.378530,4249.652938,-4938.785846,8269.594906
23249.381055,861.416136,7944.171032,12289.536874
23249.383581,-1550.549045,-3943.371645,8556.733618
23249.386107,976.271621,-7867.600709,6891.329088
23249.388632,1473.978722,2029.113565,10107.282662
23249.391158,765.703232,9724.431046,12614.960747
23249.393684,191.425808,-9207.581365,6585.047795
23249.396209,2526.820666,2029.113565,9781.858789
23249.398735,-2277.967115,8193.024582,12327.822035
23249.401261,1569.691626,-9265.009107,7082.754896
23249.403786,1167.697429,-114.855485,9054.440718
23249.406312,-287.138712,8327.022648,12117.253646
23249.408837,631.705166,-5685.346498,8059.026517
23249.411363,1282.552914,-1569.691626,9054.440718
23249.413889,-669.990328,6029.912952,11236.694930
23249.416414,-344.566454,-4039.084549,8212.167163
23249.418940,1416.550979,-5321.637462,7963.313613
23249.421466,1607.976787,1933.400661,10394.421374
23249.423991,153.140646,4115.654872,10834.700733
23249.426517,-153.140646,-4364.508422,8288.737486
23249.429043,918.843878,1493.121302,9628.718142
23249.431568,172.283227,2048.256146,10432.706536
23249.434094,2603.390989,421.136778,9456.434915
23249.436620,-5532.205851,-344.566454,9092.725880
23249.439145,3311.666478,-1952.543242,9016.155557
23249.441671,-3139.383251,7905.885870,11772.687192
23249.444197,-1703.689691,-3139.383251,8365.307810
23249.446722,1052.841944,-2603.390989,8135.596840
23249.449248,-1091.127106,11160.124606,10719.845248
23249.451774,-1052.841944,5283.352301,11198.409768
23249.454299,-516.849682,-9915.856854,6546.762634
23249.456825,229.710970,5876.772306,11064.411702
23249.459351,-3235.096155,5340.780043,11179.267187
23249.461876,1703.689691,-8001.598774,6814.758765
23249.464402,-344.566454,4287.938099,10298.708470
23249.466928,-1244.267752,6431.907149,11638.689126
23249.469460,-1282.552914,-5934.200048,7580.461997
23249.471992,-574.277424,1971.685822,9475.577496
23249.474524,-1320.838075,5034.498750,10853.843314
23249.477056,1110.269686,-4096.512291,8307.880067
23249.479588,-1129.412267,1186.840010,9552.147819
23249.482120,-689.132909,3656.232933,10451.849117
23249.484652,-3081.955509,1588.834206,9801.001370
23249.487184,1435.693560,-2450.250342,8690.731683
23249.489716,-1301.695494,5053.641331,10624.132344
23249.492248,-133.998066,-2699.103893,8652.446522
23249.494780,5857.629725,1837.687757,10145.567824
23249.497312,-3809.373579,4019.941968,11179.267187
23249.499844,3560.520029,-9513.862658,7025.327154
23249.502376,-650.847747,5340.780043,10987.841379
23249.504908,-880.558717,4230.510357,10738.987829
23249.507440,1359.123237,-10662.417506,6336.194245
23249.509972,1473.978722,6891.329088,11140.982026
23249.512504,-1780.260014,4919.643266,12634.103328
23249.515036,-382.851616,-6470.192310,7676.174901
23249.517568,2392.822600,-4134.797453,8307.880067
23249.520100,-1473.978722,8920.442653,12480.962682
23249.522632,459.421939,-3694.518094,8537.591037
23249.525164,1071.984525,-4326.223261,8116.454259
23249.527697,650.847747,6680.760699,11734.402030
23249.530229,-535.992262,-2239.681954,9054.440718
23249.532761,440.279358,-3101.098090,8307.880067
23249.535293,-555.134843,5206.781978,11064.411702
23249.537825,3024.527766,-2029.113565,9494.720077
23249.540357,-382.851616,-2297.109696,8786.444587
23249.542889,-248.853550,1875.972918,9934.999435
23249.545421,-593.420005,2775.674216,10279.565890
23249.547953,1895.115499,-2067.398726,9169.296203
23249.550485,1052.841944,3732.803256,10241.280728
23249.553017,-5589.633594,-2086.541307,8537.591037
23249.555549,4287.938099,-1837.687757,8882.157491
23249.558081,-5321.637462,8767.302006,11983.255581
23249.560613,-823.130974,-6642.475538,7293.323285
23249.563145,382.851616,421.136778,9169.296203
23249.565677,-1646.261949,11868.400096,12844.671717
23249.568209,363.709035,-8193.024582,7216.752962
23249.570746,1799.402595,-1588.834206,8786.444587
23249.573283,-3732.803256,10451.849117,12576.675586
23249.575820,-3292.523898,1205.982590,9934.999435
23249.578357,2009.970984,-8365.307810,6451.049730
23249.580895,-1435.693560,8365.307810,11638.689126
23249.583432,-669.990328,3388.236802,10604.989763
23249.585969,-918.843878,-6336.194245,7446.463931
23249.588506,-593.420005,6049.055533,10777.272990
23249.591043,-1627.119368,1454.836141,9743.573627
23249.593580,1703.689691,-5130.211654,7791.030386
23249.596117,-2718.246474,5551.348432,10834.700733
23249.598654,-306.281293,727.418070,9762.716208
23249.601192,-1990.828403,-3120.240670,8250.452325
23249.603729,1282.552914,4766.502619,10796.415571
23249.606266,-2277.967115,2871.387120,10164.710405
23249.608803,-2124.826469,-5149.354235,7963.313613
23249.611340,6680.760699,-765.703232,9360.722011
23249.613877,-2718.246474,9781.858789,12902.099459
23249.616414,1971.685822,-11868.400096,6297.909083
23249.618951,650.847747,-842.273555,8882.157491
23249.621488,-1301.695494,11715.259450,13170.095590
23249.624026,612.562586,-10547.562021,6604.190376
23249.626563,1818.545176,0.000000,9054.440718
23249.629100,-2143.969050,11830.114934,12882.956878
23249.631637,440.279358,-9667.003304,6642.475538
23249.634174,1952.543242,-746.560651,9265.009107
23249.636711,-1205.982590,8633.303941,12519.247843
23249.639248,535.992262,2029.113565,10375.278794
23249.641785,1359.123237,-6738.188442,7599.604578
23249.644323,784.845813,4211.367776,10815.558152
23249.646860,-803.988394,1569.691626,10145.567824
23249.649397,95.712904,-4153.940034,8059.026517
23249.651934,459.421939,2469.392923,10356.136213
23249.654471,612.562586,-497.707101,9820.143950
23249.657008,1722.832272,-1359.123237,9054.440718
23249.659545,-401.994197,2431.107762,10279.565890
23249.662082,995.414202,172.283227,9686.145885
23249.664619,-612.562586,-2622.533570,8767.302006
23249.667157,3081.955509,3771.088418,10260.423309
23249.669694,-4900.500685,2392.822600,11542.976222
23249.672235,-2967.100024,-5493.920690,7944.171032
23249.674777,2909.672282,172.283227,9150.153622
23249.677319,-2526.820666,11274.980091,12672.388490
23249.679861,803.988394,-7542.176835,7082.754896
23249.682403,-133.998066,-1761.117434,8556.733618
23249.684945,-1301.695494,10585.847182,12710.673651
23249.687486,-2124.826469,-8499.305875,7044.469734
23249.690028,1722.832272,-421.136778,9111.868461
23249.692570,-3292.523898,10068.997501,12519.247843
23249.695112,1282.552914,-6853.043926,7331.608446
23249.697654,-172.283227,-535.992262,8767.302006
23249.700196,-2411.965181,8269.594906,11734.402030
23249.702737,-2067.398726,2105.683888,10030.712339
23249.705279,229.710970,-6144.768437,7389.036189
23249.707821,344.566454,5800.201982,11045.269122
23249.710363,-2029.113565,2297.109696,10088.140082
23249.712905,1416.550979,-4785.645200,7886.743290
23249.715446,-2143.969050,4728.217458,10872.985894
23249.717988,593.420005,2947.957443,10375.278794
23249.720530,-2947.957443,-3005.385186,8288.737486
23249.723072,2679.961312,344.566454,9360.722011
23249.725614,861.416136,7618.747158,11887.542677
23249.728156,-1282.552914,-8575.876198,7140.182638
23249.730697,3809.373579,-2718.246474,8843.872330
23249.733239,-689.132909,8748.159426,12117.253646
23249.735781,-1473.978722,2986.242605,10547.562021
23249.738323,1378.265818,-12672.388490,5589.633594
23249.740865,1473.978722,9265.009107,11887.542677
23249.743406,-2105.683888,4823.930362,11160.124606
23249.745948,2182.254211,-11179.267187,6068.198114
23249.748490,401.994197,6814.758765,11657.831707
23249.751032,-1033.699363,3617.947771,11026.126541
23249.753574,746.560651,-9820.143950,6259.623922
23249.756116,1167.697429,3426.521963,10298.708470
23249.758657,38.285162,5130.211654,11466.405899
23249.761199,229.710970,-7561.319416,7350.751027
23249.763741,-133.998066,2316.252277,9934.999435
23249.766283,689.132909,5915.057467,11236.694930
23249.768825,-689.132909,-1856.830338,9245.866526
23249.771366,1607.976787,-5379.065205,7695.317482
23249.773912,-861.416136,6336.194245,11428.120738
23249.776457,765.703232,516.849682,9934.999435
23249.779003,-1071.984525,-6374.479406,7561.319416
23249.781548,3464.807125,5072.783912,10758.130410
23249.784094,-4402.793584,6565.905214,11485.548480
23249.786639,-746.560651,-11217.552349,6068.198114
23249.789185,2220.539373,7676.174901,11332.407834
23249.791730,-3732.803256,9934.999435,12519.247843
23249.794276,2297.109696,-13438.091722,5168.496816
23249.796821,344.566454,-8537.591037,6489.334891
23249.799367,-1052.841944,13763.515595,13552.947206
23249.801912,-3215.953574,-5474.778109,8078.169098
23249.804458,2967.100024,-6202.196179,7312.465866
23249.807003,-2469.392923,13208.380752,13418.949141
23249.809549,-267.996131,-4249.652938,8307.880067
23249.812094,95.712904,-5589.633594,7063.612315
23249.814640,-2431.107762,10279.565890,12251.251712
23249.817185,-1378.265818,-1875.972918,8997.012976
23249.819731,727.418070,-3962.514226,8001.598774
23249.822276,-823.130974,6699.903280,11428.120738
23249.824822,-1205.982590,-497.707101,9226.723946
23249.827367,-478.564520,-3905.086483,7944.171032
23249.829913,-2545.963246,1703.689691,9475.577496
23249.832458,-708.275490,2622.533570,10145.567824
23249.835004,344.566454,1588.834206,9705.288466
23249.837549,-2201.396792,-2737.389054,8595.018779
23249.840095,6853.043926,1703.689691,10375.278794
23249.842640,-2488.535504,5819.344563,11715.259450
23249.845186,2258.824534,-10662.417506,6451.049730
23249.847731,727.418070,1263.410333,9820.143950
23249.850277,-2124.826469,9188.438784,12404.392358
23249.852822,746.560651,-11236.694930,6336.194245
23249.855368,1914.258080,2469.392923,9877.571693
23249.857913,-2220.539373,10202.995566,12576.675586
23249.860459,-1550.549045,-1818.545176,9226.723946
23249.863004,2411.965181,-8633.303941,7063.612315
23249.865550,-1225.125171,7905.885870,11849.257515
23249.868095,114.855485,421.136778,9705.288466
23249.870641,1588.834206,-6738.188442,7484.749093
23249.873186,976.271621,5819.344563,11370.692995
23249.875735,-1225.125171,1033.699363,10011.569758
23249.878283,669.990328,-5072.783912,7791.030386
23249.880831,1818.545176,3005.385186,10566.704602
23249.883379,38.285162,3101.098090,10643.274925
23249.885928,535.992262,-5857.629725,7771.887805
23249.888476,-382.851616,2794.816797,10202.995566
23249.891024,535.992262,-10643.274925,10585.847182
23249.893572,1550.549045,2852.244539,10356.136213
23249.896121,-4996.213589,-3790.230998,7867.600709
23249.898669,3713.660675,-248.853550,9265.009107
23249.901217,-3981.656806,10317.851051,12519.247843
23249.903765,-1416.550979,-6355.336826,7369.893608
23249.906314,1301.695494,-1646.261949,8461.020714
23249.908862,-1473.978722,12538.390424,13189.238171
23249.911410,191.425808,-6240.481341,7848.458128
23249.913958,1397.408398,-4153.940034,7944.171032
23249.916506,-2871.387120,10700.702667,12614.960747
23249.919055,-1646.261949,-6642.475538,7427.321350
23249.921603,2297.109696,-995.414202,8767.302006
23249.924151,-1225.125171,7695.317482,11466.405899
23249.926699,-2852.244539,2871.387120,10298.708470
23249.929248,1282.552914,-6527.620053,7178.467800
23249.931796,-76.570323,8193.024582,11657.831707
23249.934344,-1052.841944,-172.283227,9590.432981
23249.936892,-114.855485,-5187.639397,7599.604578
23249.939441,-976.271621,6585.047795,11370.692995
23249.941989,-2545.963246,1071.984525,9667.003304
23249.944537,2067.398726,-4268.795518,8001.598774
23249.947085,-1875.972918,8212.167163,11542.976222
23249.949634,-0.000000,-3828.516160,8327.022648
23249.952182,5532.205851,267.996131,9686.145885
23249.954730,-1550.549045,7293.323285,11925.827838
23249.957278,1205.982590,-5321.637462,8441.878133
23249.959826,1091.127106,-4594.219392,8116.454259
23249.962375,-1301.695494,9609.575562,12308.679454
23249.964923,-0.000000,-5857.629725,8001.598774
23249.967471,1971.685822,-2660.818731,8327.022648
23249.970019,-995.414202,10375.278794,12576.675586
23249.972568,38.285162,-5742.774240,7925.028451
23249.975116,1722.832272,-3943.371645,8461.020714
23249.977667,-746.560651,8384.450390,12346.964616
23249.980218,823.130974,-2967.100024,8690.731683
23249.982769,2086.541307,-4594.219392,8020.741355
23249.985320,459.421939,6297.909083,10336.993632
23249.987870,-1263.410333,4364.508422,10968.698798
23249.990421,957.129040,-4728.217458,8116.454259
23249.992972,421.136778,-823.130974,9303.294269
23249.995523,1818.545176,4804.787781,11064.411702
23249.998074,248.853550,-2335.394858,9016.155557
23250.000625,861.416136,-1148.554848,9054.440718
23250.003176,76.570323,1244.267752,10145.567824
23250.005727,2239.681954,3426.521963,10432.706536
23250.008278,-5455.635528,-1799.402595,8575.876198
23250.010829,3407.379382,-3292.523898,8403.592971
23250.013379,-2986.242605,11045.269122,12576.675586
23250.015930,-2009.970984,-3158.525832,8269.594906
23250.018481,1856.830338,-10624.132344,6010.770371
23250.021032,-267.996131,4498.506488,10356.136213
23250.023583,-1646.261949,8154.739421,12136.396227
23250.026134,133.998066,-10681.560086,6336.194245
23250.028685,669.990328,4804.787781,10758.130410
23250.031236,-3732.803256,6029.912952,11351.550414
23250.033787,1971.685822,-7714.460062,6757.331022
23250.036338,-1244.267752,3962.514226,10222.138147
23250.038888,-2258.824534,5857.629725,11102.696864
23250.041439,-459.421939,-6259.623922,7408.178770
23250.043990,727.418070,3445.664544,10183.852986
23250.046541,-1454.836141,4019.941968,10700.702667
23250.049092,76.570323,-4000.799387,9322.436850
23250.051643,-1071.984525,-2335.394858,8767.302006
23250.054194,-1033.699363,5666.203917,10796.415571
23250.056745,-2756.531635,-1684.547110,8824.729749
23250.059298,3062.812928,-803.988394,8920.442653
23250.061851,-3943.371645,6240.481341,11217.552349
23250.064404,2603.390989,-8537.591037,7121.040058
23250.066957,2718.246474,2411.965181,10394.421374
23250.069510,-2488.535504,3962.514226,11217.552349
23250.072063,899.701298,-10470.991698,6451.049730
23250.074616,344.566454,6106.483275,11102.696864
23250.077169,57.427742,6393.621987,11619.546546
23250.079723,1244.267752,-9877.571693,6412.764568
23250.082276,2641.676150,-4421.936165,7925.028451
23250.084829,-2239.681954,9456.434915,12404.392358
23250.087382,-57.427742,-5876.772306,8154.739421
23250.089935,2048.256146,-4402.793584,7944.171032
23250.092488,38.285162,9303.294269,12346.964616
23250.095041,421.136778,-4785.645200,8441.878133
23250.097594,1550.549045,-3905.086483,8231.309744
23250.100147,-1282.552914,8422.735552,12059.825904
23250.102700,1684.547110,-4287.938099,8709.874264
23250.105253,363.709035,-2220.539373,8652.446522
23250.107806,172.283227,4881.358104,11026.126541
23250.110360,-306.281293,-2756.531635,8690.731683
23250.112913,3024.527766,-1856.830338,8384.450390
23250.115466,401.994197,5991.627790,11006.983960
23250.118019,-5283.352301,-995.414202,9092.725880
23250.120572,3790.230998,-4039.084549,7982.456194
23250.123125,-5379.065205,10088.140082,12021.540742
23250.125678,-669.990328,-5359.922624,7484.749093
23250.128231,861.416136,-1186.840010,8767.302006
23250.130784,-1741.974853,11715.259450,13055.240106
23250.133337,-421.136778,-7025.327154,7599.604578
23250.135890,114.855485,-2316.252277,8365.307810
23250.138443,-2335.394858,8652.446522,12002.398162
23250.140997,-401.994197,-6068.198114,7561.319416
23250.143550,1225.125171,172.283227,9207.581365
23250.146103,-1550.549045,7312.465866,11523.833642
23250.148656,-1531.406464,2124.826469,10183.852986
23250.151209,344.566454,-5340.780043,7446.463931
23250.153762,-306.281293,5455.635528,10758.130410
23250.156315,-976.271621,1703.689691,9992.427178
23250.158868,38.285162,-3177.668413,8537.591037
23250.161423,-1856.830338,3215.953574,10356.136213
23250.163977,-1875.972918,2143.969050,9801.001370
23250.166531,-1091.127106,-4402.793584,7848.458128
23250.169086,1933.400661,5283.352301,10815.558152
23250.171640,-4651.647134,1818.545176,9934.999435
23250.174195,5474.778109,-8173.882002,7197.610381
23250.176749,2297.109696,8595.018779,9628.718142
23250.179304,-3177.668413,7714.460062,12366.107197
23250.181858,631.705166,-10949.556218,6470.192310
23250.184412,1186.840010,2699.103893,10068.997501
23250.186967,325.423874,10317.851051,12672.388490
23250.189521,803.988394,-10279.565890,6374.479406
23250.192076,2086.541307,2584.248408,9992.427178
23250.194630,-2833.101958,7580.461997,12155.538808
23250.197185,1761.117434,-9475.577496,6948.756830
23250.199739,267.996131,1110.269686,9686.145885
23250.202294,516.849682,6125.625856,11313.265253
23250.204848,1397.408398,-5589.633594,7982.456194
23250.207402,650.847747,-57.427742,9456.434915
23250.209957,-306.281293,4096.512291,10719.845248
23250.212511,-306.281293,-1205.982590,9379.864592
23250.215066,1627.119368,-1320.838075,9092.725880
23250.217620,535.992262,2775.674216,10470.991698
23250.220175,957.129040,-287.138712,9475.577496
23250.222729,1339.980656,-2641.676150,8901.300072
23250.225283,1205.982590,5761.916821,11026.126541
23250.227838,-5666.203917,-2297.109696,8671.589102
23250.230392,3541.377448,-3962.514226,8059.026517
23250.232947,-4000.799387,11887.542677,12748.958813
23250.235501,-1512.263883,-4728.217458,7771.887805
23250.238056,1875.972918,-3847.658741,7848.458128
23250.240610,-440.279358,13629.517530,11255.837510
23250.243165,-1780.260014,5972.485210,11619.546546
23250.245719,-19.142581,-10356.136213,6412.764568
23250.248273,-153.140646,5570.491013,10872.985894
23250.250828,-2737.389054,4575.076811,10738.987829
23250.253382,784.845813,-7503.891674,6891.329088
23250.255937,-861.416136,4785.645200,10624.132344
23250.258491,-2239.681954,4900.500685,11006.983960
23250.261046,363.709035,-5800.201982,7408.178770
23250.263601,-306.281293,3962.514226,10298.708470
23250.266157,-1990.828403,3579.662610,10509.276859
23250.268713,746.560651,-4651.647134,8059.026517
23250.271269,-1569.691626,3866.801322,10470.991698
23250.273825,669.990328,4766.502619,10777.272990
23250.276381,-1875.972918,1091.127106,9647.860723
23250.278936,516.849682,-5130.211654,7791.030386
23250.281492,4632.504554,7044.469734,11696.116869
23250.284048,-3177.668413,1091.127106,10375.278794
23250.286604,4421.936165,-10949.556218,6508.477472
23250.289160,-765.703232,8786.444587,12251.251712
23250.291716,-1875.972918,1531.406464,10088.140082
23250.294271,1550.549045,-11810.972354,5800.201982
23250.296827,1741.974853,10566.704602,12366.107197
23250.299383,-1359.123237,3024.527766,10643.274925
23250.301939,2335.394858,-10164.710405,6412.764568
23250.304495,2201.396792,-3215.953574,8595.018779
23250.307051,-1148.554848,9379.864592,12614.960747
23250.309606,-229.710970,-5321.637462,7848.458128
23250.312162,2316.252277,-3905.086483,8154.739421
23250.314718,459.421939,8709.874264,12423.534939
23250.317274,401.994197,-3311.666478,8786.444587
23250.319830,2469.392923,-4460.221326,8365.307810
23250.322386,-1416.550979,7848.458128,11925.827838
23250.324941,-133.998066,-3732.803256,8595.018779
23250.327497,689.132909,-3771.088418,8135.596840
23250.330053,2584.248408,6336.194245,11504.691061
23250.332609,-2756.531635,-114.855485,9533.005238
23250.335165,-1359.123237,-8154.739421,6929.614250
23250.337721,3503.092286,0.000000,9035.298138
23250.340276,-6163.911018,11810.972354,12748.958813
23250.342832,19.142581,-10126.425243,6068.198114
23250.345388,1071.984525,1684.547110,9475.577496
23250.347944,-1875.972918,13284.951075,13686.945272
23250.350500,-746.560651,-10394.421374,6546.762634
23250.353056,-612.562586,-1225.125171,8614.161360
23250.355611,-1780.260014,10011.569758,12519.247843
23250.358167,-248.853550,-7274.180704,7255.038123
23250.360723,1148.554848,-191.425808,9054.440718
23250.363279,-2833.101958,9265.009107,12385.249778
23250.365836,-1263.410333,-4919.643266,8078.169098
23250.368392,153.140646,-6355.336826,7082.754896
23250.370949,-306.281293,5781.059402,10719.845248
23250.373506,-2392.822600,2737.389054,10202.995566
23250.376063,899.701298,-5704.489078,7848.458128
23250.378619,-2201.396792,4977.071008,10796.415571
23250.381176,1167.697429,3081.955509,10528.419440
23250.383733,-2277.967115,-2622.533570,8518.448456
23250.386290,1703.689691,-803.988394,9150.153622
23250.388846,1971.685822,7618.747158,11830.114934
23250.391403,-2220.539373,-6068.198114,7905.885870
23250.393960,4575.076811,-4996.213589,8097.311678
23250.396517,-2316.252277,10930.413637,13227.523333
23250.399073,-765.703232,-6412.764568,11351.550414
23250.401630,976.271621,-12882.956878,5589.633594
23250.404187,2067.398726,7006.184573,11121.839445
23250.406744,-1359.123237,7216.752962,11906.685258
23250.409300,1933.400661,-10834.700733,6336.194245
23250.411857,1129.412267,4383.651003,10968.698798
23250.414414,-1148.554848,6049.055533,11791.829773
23250.416971,574.277424,-8212.167163,6833.901346
23250.419527,1971.685822,1512.263883,9686.145885
23250.422084,459.421939,6240.481341,11849.257515
23250.424641,1320.838075,-5991.627790,7944.171032
23250.427198,1378.265818,-880.558717,9284.151688
23250.429754,-995.414202,6948.756830,11715.259450
23250.432311,248.853550,1780.260014,10394.421374
23250.434868,1282.552914,-5321.637462,7829.315547
23250.437425,1971.685822,1569.691626,10011.569758
23250.439982,344.566454,7178.467800,11676.974288
23250.442538,-5398.207786,-6106.483275,7542.176835
23250.445095,3617.947771,-2277.967115,8480.163294
23250.447652,-4728.217458,13131.810429,13150.953010
23250.450209,-1110.269686,-7389.036189,6929.614250
23250.452765,2163.111630,-2584.248408,8154.739421
23250.455322,-1646.261949,14835.500120,14088.939469
23250.457879,-765.703232,-7331.608446,7599.604578
23250.460436,-708.275490,-5111.069074,7369.893608
23250.462992,-306.281293,10758.130410,10911.271056
23250.465549,-2622.533570,4058.227130,10681.560086
23250.468106,2239.681954,-6489.334891,7293.323285
23250.470663,-918.843878,4938.785846,10872.985894
23250.473221,-1895.115499,3579.662610,10528.419440
23250.475778,-421.136778,-5264.209720,7484.749093
23250.478335,-555.134843,3962.514226,10183.852986
23250.480892,-1071.984525,3905.086483,10624.132344
23250.483449,-401.994197,-4517.649069,8212.167163
23250.486007,-2545.963246,2794.816797,9801.001370
23250.488564,-612.562586,1148.554848,9762.716208
23250.491121,-95.712904,344.566454,9322.436850
23250.493678,-2622.533570,-1435.693560,8977.870395
23250.496235,4134.797453,-4287.938099,8288.737486
23250.498793,1512.263883,6642.475538,11791.829773
23250.501350,-976.271621,-3196.810994,8920.442653
23250.503907,1167.697429,-7982.456194,7178.467800
23250.506464,-1359.123237,10604.989763,12672.388490
23250.509021,-191.425808,-1454.836141,9322.436850
23250.511579,2813.959378,-7599.604578,6833.901346
23250.514136,38.285162,10681.560086,12557.533005
23250.516693,-1359.123237,-1952.543242,9169.296203
23250.519250,1684.547110,-8212.167163,6987.041992
23250.521807,-535.992262,6967.899411,11600.403965
23250.524365,19.142581,1129.412267,9934.999435
23250.526922,937.986459,-5455.635528,8059.026517
23250.529479,1148.554848,-1052.841944,9169.296203
23250.532036,401.994197,4613.361973,11255.837510
23250.534593,-784.845813,-2545.963246,8824.729749
23250.537151,-133.998066,-3024.527766,8461.020714
23250.539708,-133.998066,3522.234867,10566.704602
23250.542265,2584.248408,172.283227,9743.573627
23250.544822,-1837.687757,-1473.978722,8709.874264
23250.547379,-727.418070,-1435.693560,8824.729749
23250.549937,-1186.840010,7561.319416,11830.114934
23250.552494,-5015.356170,-3924.229064,8193.024582
23250.555051,3464.807125,-3598.805190,7599.604578
23250.557608,-2182.254211,12978.669782,12997.812363
23250.560165,-2009.970984,7867.600709,12174.681389
23250.562722,-593.420005,-11351.550414,6125.625856
23250.565280,-1186.840010,3751.945837,10030.712339
23250.567837,-2105.683888,6757.331022,11638.689126
23250.570395,708.275490,-7599.604578,7025.327154
23250.572952,-19.142581,1416.550979,9571.290400
23250.575510,-1071.984525,7063.612315,11753.544611
23250.578068,-2029.113565,-3426.521963,8422.735552
23250.580626,-1033.699363,-1646.261949,8461.020714
23250.583183,-1091.127106,6049.055533,10987.841379
23250.585741,-803.988394,287.138712,9303.294269
23250.588299,-114.855485,-3349.951640,8269.594906
23250.590857,-2277.967115,516.849682,9245.866526
23250.593414,-1225.125171,2603.390989,10222.138147
23250.595972,535.992262,1627.119368,9877.571693
23250.598530,-2928.814862,-3426.521963,8403.592971
23250.601088,5972.485210,382.851616,9839.286531
23250.603645,-842.273555,7599.604578,12117.253646
23250.606203,1818.545176,-9781.858789,6853.043926
23250.608761,1225.125171,-1531.406464,9092.725880
23250.611319,-3311.666478,11064.411702,12882.956878
23250.613876,-172.283227,-9973.284597,6604.190376
23250.616434,2679.961312,-918.843878,8652.446522
23250.618992,-440.279358,11944.970419,13208.380752
23250.621550,612.562586,-8269.594906,10279.565890
23250.624107,1990.828403,-10222.138147,6565.905214
23250.626665,38.285162,5991.627790,11217.552349
23250.629223,114.855485,3617.947771,10700.702667
23250.631781,1493.121302,-7905.885870,7063.612315
23250.634338,1282.552914,3637.090352,10758.130410
23250.636896,555.134843,2909.672282,10815.558152
23250.639454,-555.134843,-4919.643266,8039.883936
23250.642012,-229.710970,459.421939,9456.434915
23250.644569,-401.994197,2852.244539,10432.706536
23250.647127,3330.809059,-2871.387120,8843.872330
23250.649685,-1933.400661,1550.549045,9724.431046
23250.652243,-1473.978722,-1359.123237,8997.012976
23250.654800,2565.105827,1091.127106,9781.858789
23250.657358,-6336.194245,5704.489078,10738.987829
23250.659916,650.847747,-7312.465866,6699.903280
23250.662474,669.990328,4785.645200,10470.991698
23250.665031,-2067.398726,8595.018779,12270.394293
23250.667589,-593.420005,-10164.710405,6527.620053
23250.670147,-1244.267752,2220.539373,9667.003304
23250.672705,-1952.543242,7427.321350,11696.116869
23250.675263,823.130974,-6719.045861,7274.180704
23250.677821,19.142581,459.421939,9456.434915
23250.680379,-1186.840010,6431.907149,11447.263318
23250.682936,-1397.408398,-2143.969050,8748.159426
23250.685494,-1129.412267,-1225.125171,8154.739421
23250.688052,-1225.125171,2488.535504,9705.288466
23250.690610,287.138712,3637.090352,10413.563955
23250.693168,-114.855485,-1110.269686,9207.581365
23250.695726,-995.414202,1244.267752,9475.577496
23250.698284,-2699.103893,765.703232,9552.147819
23250.700842,1895.115499,459.421939,9628.718142
23250.703400,-3177.668413,2086.541307,9896.714274
23250.705958,3062.812928,-6604.190376,7484.749093
23250.708516,2967.100024,5053.641331,11160.124606
23250.711073,-2086.541307,861.416136,10183.852986
23250.713631,1186.840010,-9628.718142,6853.043926
23250.716189,-957.129040,8518.448456,12040.683323
23250.718747,689.132909,11408.978157,12882.956878
23250.721305,1263.410333,-7484.749093,7255.038123
23250.723863,2239.681954,-1837.687757,8690.731683
23250.726421,-2871.387120,8403.592971,12385.249778
23250.728979,-210.568389,-7197.610381,7637.889739
23250.731537,1148.554848,-2775.674216,8288.737486
23250.734095,803.988394,8843.872330,12308.679454
23250.736652,1014.556782,-3962.514226,8595.018779
23250.739210,2143.969050,-4058.227130,8403.592971
23250.741768,-1933.400661,5532.205851,11179.267187
23250.744326,-535.992262,-2316.252277,8824.729749
23250.746884,918.843878,-2277.967115,8882.157491
23250.749442,2622.533570,5053.641331,10279.565890
23250.752000,-1244.267752,746.560651,9667.003304
23250.754558,3005.385186,-2775.674216,8556.733618
23250.757116,-4498.506488,6604.190376,11408.978157
23250.759674,-1933.400661,-5130.211654,8116.454259
23250.762231,1665.404530,2909.672282,9781.858789
23250.764789,-2507.678085,9399.007173,11887.542677
23250.767347,2584.248408,-8690.731683,6680.760699
23250.769905,-95.712904,2775.674216,10107.282662
23250.772463,-2201.396792,7925.028451,12098.111066
23250.775021,-1569.691626,-8441.878133,6948.756830
23250.777578,287.138712,2124.826469,9743.573627
23250.780136,-708.275490,6604.190376,11370.692995
23250.782694,-287.138712,1435.693560,10049.854920
23250.785251,-1378.265818,-4326.223261,7982.456194
23250.787809,-1780.260014,4000.799387,10413.563955
23250.790366,-1607.976787,2660.818731,9954.142016
23250.792924,363.709035,-1607.976787,8575.876198
23250.795482,-784.845813,1952.543242,9915.856854
23250.798039,-1933.400661,1971.685822,9839.286531
23250.800597,-631.705166,-2622.533570,8633.303941
23250.803155,-344.566454,3981.656806,10547.562021
23250.805712,-3445.664544,-1646.261949,9073.583299
23250.808270,6661.618118,-1799.402595,9150.153622
23250.810828,-765.703232,7427.321350,11887.542677
23250.813385,-1435.693560,-153.140646,9992.427178
23250.815943,1129.412267,-9552.147819,6967.899411
23250.818500,-1588.834206,9475.577496,12289.536874
23250.821058,-574.277424,1148.554848,9934.999435
23250.823616,2871.387120,-8997.012976,6393.621987
23250.826173,842.273555,9647.860723,12155.538808
23250.828731,-746.560651,210.568389,10107.282662
23250.831289,478.564520,-8193.024582,7178.467800
23250.833846,-1225.125171,4383.651003,10681.560086
23250.836404,1397.408398,2258.824534,10222.138147
23250.838961,1588.834206,-4173.082614,8384.450390
23250.841519,1435.693560,1550.549045,10145.567824
23250.844077,-765.703232,306.281293,10183.852986
23250.846634,-191.425808,-1818.545176,8997.012976
23250.849192,-287.138712,-76.570323,9609.575562
23250.851750,2239.681954,1837.687757,10145.567824
23250.854307,-0.000000,-2277.967115,8882.157491
23250.856865,3273.381317,2048.256146,9992.427178
23250.859422,-5398.207786,4479.363907,10719.845248
23250.861980,-421.136778,-7637.889739,7312.465866
23250.864538,-191.425808,7905.885870,11389.835576
23250.867095,-2392.822600,6106.483275,10987.841379
23250.869653,3503.092286,-9628.718142,6221.338760
23250.872211,-114.855485,7657.032320,11447.263318
23250.874768,-1990.828403,4785.645200,11313.265253
23250.877326,-2258.824534,-4804.787781,8116.454259
23250.879884,1071.984525,-3694.518094,8078.169098
23250.882442,-38.285162,7925.028451,11676.974288
23250.884999,95.712904,-344.566454,9513.862658
23250.887557,-1435.693560,-4096.512291,7963.313613
23250.890115,-1722.832272,5015.356170,10892.128475
23250.892673,-2086.541307,2182.254211,9839.286531
23250.895231,669.990328,-2450.250342,8346.165229
23250.897788,-555.134843,3158.525832,10279.565890
23250.900346,-1780.260014,2450.250342,9973.284597
23250.902904,-1320.838075,-4307.080680,8020.741355
23250.905462,842.273555,4115.654872,10624.132344
23250.908019,-4977.071008,1225.125171,11236.694930
23250.910577,1895.115499,-8461.020714,7082.754896
23250.913135,4307.080680,1493.121302,9934.999435
23250.915693,-2622.533570,5895.914886,11849.257515
23250.918251,421.136778,-10470.991698,6814.758765
23250.920808,-0.000000,4479.363907,10758.130410
23250.923366,-401.994197,7465.606512,11849.257515
23250.925924,2354.537438,-10145.567824,6163.911018
23250.928482,1761.117434,4823.930362,10509.276859
23250.931039,-1646.261949,5034.498750,11523.833642
23250.933597,880.558717,-7886.743290,7427.321350
23250.936155,-937.986459,1320.838075,9667.003304
23250.938713,1225.125171,4039.084549,10758.130410
23250.941271,2163.111630,-535.992262,9590.432981
23250.943828,2526.820666,-3388.236802,8729.016845
23250.946386,-1741.974853,3579.662610,10566.704602
23250.948944,-1301.695494,-1225.125171,9226.723946
23250.951502,-306.281293,-2450.250342,8652.446522
23250.954059,3579.662610,2603.390989,10279.565890
23250.956617,-1454.836141,1205.982590,9667.003304
23250.959175,-306.281293,-5111.069074,7829.315547
23250.961733,-1129.412267,7867.600709,11810.972354
23250.964291,-5915.057467,-1167.697429,9131.011042
23250.966848,3196.810994,-5819.344563,6853.043926
23250.969406,-1416.550979,12538.390424,12595.818166
23250.971964,-1780.260014,-1895.115499,12480.962682
23250.974522,-823.130974,-10528.419440,6489.334891
23250.977079,-1550.549045,2182.254211,9724.431046
23250.979637,-1780.260014,7006.184573,11657.831707
23250.982194,669.990328,-6087.340694,7503.891674
23250.984752,325.423874,382.851616,9226.723946
23250.987309,-363.709035,6125.625856,11504.691061
23250.989867,-1703.689691,-1684.547110,9073.583299
23250.992424,-1952.543242,-1665.404530,8499.305875
23250.994982,-1703.689691,5264.209720,10624.132344
23250.997539,19.142581,153.140646,9322.436850
23251.000096,-421.136778,-1799.402595,8729.016845
23251.002654,1320.838075,4211.367776,9016.155557
23251.005211,-1761.117434,6470.192310,11408.978157
23251.007769,-2392.822600,-5245.067139,8020.741355
23251.010326,6661.618118,19.142581,9533.005238
23251.012884,-1895.115499,8499.305875,12366.107197
23251.015441,3751.945837,-10260.423309,6680.760699
23251.017998,880.558717,842.273555,9877.571693
23251.020556,-3905.086483,8307.880067,12270.394293
23251.023113,478.564520,-11466.405899,6144.768437
23251.025671,2699.103893,4153.940034,10279.565890
23251.028228,-133.998066,8480.163294,12136.396227
23251.030786,2163.111630,-9303.294269,6757.331022
23251.033343,-1052.841944,1033.699363,9839.286531
23251.035901,-1703.689691,5895.914886,11160.124606
23251.038458,880.558717,-535.992262,9418.149754
23251.041015,1856.830338,-3598.805190,8499.305875
23251.043573,2890.529701,3349.951640,10872.985894
23251.046130,-1473.978722,-76.570323,9590.432981
23251.048688,-823.130974,-4173.082614,8116.454259
23251.051245,-1071.984525,2718.246474,10336.993632
23251.053803,1971.685822,2048.256146,10394.421374
23251.056360,38.285162,-4402.793584,8116.454259
23251.058917,3637.090352,1818.545176,9724.431046
23251.061475,-4900.500685,7101.897477,11676.974288
23251.064032,-1952.543242,-9073.583299,6910.471669
23251.066590,3254.238736,5685.346498,6948.756830
23251.069147,-1473.978722,13265.808494,12787.243974
23251.071705,535.992262,-2622.533570,8843.872330
23251.074262,-114.855485,-7752.745224,6910.471669
23251.076820,-1780.260014,10892.128475,12787.243974
23251.079377,-3005.385186,-1665.404530,9150.153622
23251.081933,784.845813,-5742.774240,7465.606512
23251.084491,-19.142581,6546.762634,11140.982026
23251.087048,976.271621,2526.820666,10432.706536
23251.089605,-1818.545176,-4173.082614,8116.454259
23251.092163,-2105.683888,2316.252277,9839.286531
23251.094720,-2316.252277,4211.367776,10260.423309
23251.097277,76.570323,-2239.681954,8480.163294
23251.099835,-1225.125171,-2124.826469,8384.450390
23251.102392,1473.978722,2507.678085,10260.423309
23251.104949,-2794.816797,5053.641331,10968.698798
23251.107507,-1033.699363,-7848.458128,7178.467800
23251.110064,5379.065205,4096.512291,10738.987829
23251.112621,-2909.672282,6604.190376,11849.257515
23251.115179,5111.069074,-12461.820101,5915.057467
23251.117736,593.420005,5436.492947,11140.982026
23251.120294,-3809.373579,6049.055533,11657.831707
23251.122851,1282.552914,-12997.812363,5723.631659
23251.125408,2239.681954,8212.167163,11619.546546
23251.127966,38.285162,5991.627790,11408.978157
23251.130523,1588.834206,-5551.348432,8154.739421
23251.133080,440.279358,-4938.785846,8173.882002
23251.135638,-1933.400661,6891.329088,11676.974288
23251.138195,574.277424,-2565.105827,8843.872330
23251.140752,1895.115499,-2794.816797,8690.731683
23251.143310,3235.096155,3828.516160,11102.696864
23251.145867,-784.845813,-57.427742,9533.005238
23251.148424,-1263.410333,-4153.940034,8154.739421
23251.150982,-1454.836141,2201.396792,10126.425243
23251.153539,2048.256146,2450.250342,10509.276859
23251.156096,-803.988394,-3771.088418,8173.882002
23251.158654,3005.385186,-918.843878,8882.157491
23251.161211,-3483.949706,9609.575562,12385.249778
23251.163768,-7331.608446,1952.543242,10126.425243
23251.166326,2737.389054,-9437.292334,5895.914886
23251.168883,-555.134843,11447.263318,12155.538808
23251.171441,-1129.412267,3215.953574,10624.132344
23251.173998,19.142581,-11217.552349,6049.055533
23251.176555,-1473.978722,8384.450390,11791.829773
23251.179113,-2603.390989,3139.383251,10777.272990
23251.181670,459.421939,-7197.610381,7101.897477
23251.184227,-76.570323,3388.236802,10145.567824
23251.186784,957.129040,5091.926493,11121.839445
23251.189340,-1301.695494,-2718.246474,8633.303941
23251.191897,-2431.107762,-57.427742,9092.725880
23251.194454,-516.849682,3081.955509,9992.427178
23251.197011,-38.285162,3751.945837,10432.706536
23251.199568,-650.847747,-1627.119368,8537.591037
23251.202125,-287.138712,-2239.681954,8671.589102
23251.204682,133.998066,6680.760699,11581.261384
23251.207238,-5072.783912,-2469.392923,8767.302006
23251.209795,5953.342629,-6910.471669,7408.178770
23251.212352,995.414202,11810.972354,13055.240106
23251.214909,1033.699363,-5685.346498,8154.739421
23251.217466,2545.963246,-8824.729749,6891.329088
23251.220023,-3962.514226,13706.087853,13744.373014
23251.222580,-1703.689691,-6125.625856,8059.026517
23251.225136,2354.537438,-6412.764568,5111.069074
23251.227693,1818.545176,6163.911018,10777.272990
23251.230250,-1148.554848,6183.053598,11696.116869
23251.232807,880.558717,-10068.997501,6795.616184
23251.235364,-976.271621,1722.832272,9820.143950
23251.237921,631.705166,5053.641331,11217.552349
23251.240478,2354.537438,-5091.926493,8154.739421
23251.243034,1033.699363,-957.129040,9360.722011
23251.245591,172.283227,4575.076811,11006.983960
23251.248148,-248.853550,-1435.693560,9360.722011
23251.250705,-459.421939,-1914.258080,8767.302006
23251.253262,3273.381317,957.129040,10068.997501
23251.255819,1301.695494,5379.065205,10987.841379
23251.258376,-5168.496816,2220.539373,10068.997501
23251.260932,880.558717,-8537.591037,6948.756830
23251.263489,-2316.252277,10911.271056,12480.962682
23251.266046,-3732.803256,3273.381317,10126.425243
23251.268603,4115.654872,-10164.710405,5838.487144
23251.271160,478.564520,11294.122672,12500.105262
23251.273717,-1684.547110,2220.539373,10662.417506
23251.276274,-1761.117434,-10030.712339,6240.481341
23251.278830,-1665.404530,6106.483275,10834.700733
23251.281387,-133.998066,4326.223261,10987.841379
23251.283944,1052.841944,-4345.365842,8001.598774
23251.286500,-1129.412267,669.990328,9379.864592
23251.289056,-2067.398726,3713.660675,10432.706536
23251.291613,-2182.254211,3101.098090,10068.997501
23251.294169,-727.418070,-2565.105827,8346.165229
23251.296725,-1722.832272,1320.838075,9245.866526
23251.299281,1665.404530,3617.947771,10585.847182
23251.301837,-1761.117434,1320.838075,9801.001370
23251.304393,-669.990328,-5991.627790,7771.887805
23251.306949,3981.656806,5953.342629,11447.263318
23251.309505,-2871.387120,3062.812928,10796.415571
23251.312061,5245.067139,-11523.833642,6163.911018
23251.314618,535.992262,7752.745224,11868.400096
23251.317174,-3637.090352,3579.662610,10911.271056
23251.319730,1837.687757,-12806.386555,5838.487144
23251.322286,2737.389054,-2220.539373,8346.165229
23251.324842,191.425808,12614.960747,13342.378818
23251.327398,1933.400661,-7255.038123,7561.319416
23251.329954,746.560651,-3885.943902,8193.024582
23251.332510,-1531.406464,7676.174901,11983.255581
23251.335066,401.994197,-3139.383251,8786.444587
23251.337623,1703.689691,-3369.094221,8499.305875
23251.340179,1875.972918,3617.947771,10911.271056
23251.342735,1167.697429,708.275490,9877.571693
23251.345291,-363.709035,-2641.676150,8843.872330
23251.347847,-1320.838075,1301.695494,9877.571693
23251.350403,2833.101958,631.705166,10030.712339
23251.352959,2316.252277,4441.078746,10700.702667
23251.355515,-5072.783912,-1550.549045,8709.874264
23251.358072,2775.674216,-4479.363907,8173.882002
23251.360628,-4862.215523,11274.980091,12614.960747
23251.363184,-2718.246474,-3445.664544,8020.741355
23251.365740,3330.809059,-4651.647134,7561.319416
23251.368296,-1071.984525,13686.945272,13514.662045
23251.370852,-574.277424,-4651.647134,8403.592971
23251.373408,-1531.406464,-6872.186507,6872.186507
23251.375964,-1588.834206,8805.587168,11849.257515
23251.378520,363.709035,478.564520,9896.714274
23251.381077,172.283227,-4230.510357,8020.741355
23251.383633,-880.558717,2909.672282,10107.282662
23251.386189,-1339.980656,4843.072942,10738.987829
23251.388744,-1990.828403,1359.123237,9533.005238
23251.391300,-784.845813,-2660.818731,8307.880067
23251.393855,-2048.256146,3177.668413,9896.714274
23251.396411,842.273555,1799.402595,10068.997501
23251.398966,-746.560651,497.707101,9494.720077
23251.401522,-1741.974853,-3656.232933,8537.591037
23251.404077,4862.215523,3885.943902,10987.841379
23251.406633,-2297.109696,3503.092286,10872.985894
23251.409189,4594.219392,-9915.856854,6451.049730
23251.411744,784.845813,5474.778109,11179.267187
23251.414300,-3751.945837,4747.360038,11217.552349
23251.416855,-1014.556782,-7331.608446,7771.887805
23251.419411,2890.529701,-3560.520029,8020.741355
23251.421966,344.566454,12346.964616,13016.954944
23251.424522,1167.697429,-6087.340694,7848.458128
23251.427077,689.132909,-5302.494882,7771.887805
23251.429633,-1167.697429,7848.458128,11964.113000
23251.432188,516.849682,-2124.826469,9169.296203
23251.434744,2507.678085,-4670.789715,8384.450390
23251.437299,306.281293,4326.223261,11006.983960
23251.439855,478.564520,-287.138712,9456.434915
23251.442410,133.998066,-2756.531635,8767.302006
23251.444966,-459.421939,3464.807125,10490.134278
23251.447521,1588.834206,-1244.267752,9475.577496
23251.450077,3560.520029,-631.705166,9226.723946
23251.452632,-4249.652938,5091.926493,10662.417506
23251.455188,-918.843878,-5608.776174,7867.600709
23251.457743,-114.855485,5895.914886,10892.128475
23251.460299,-3579.662610,6585.047795,10987.841379
23251.462855,3694.518094,-8729.016845,6470.192310
23251.465410,248.853550,6565.905214,11026.126541
23251.467966,-1799.402595,5015.356170,11370.692995
23251.470521,-1837.687757,-8863.014910,6719.045861
23251.473077,-1186.840010,3139.383251,9915.856854
23251.475632,-421.136778,5474.778109,11160.124606
23251.478188,937.986459,-2699.103893,8652.446522
23251.480743,-1493.121302,-3081.955509,8288.737486
23251.483299,-2450.250342,2833.101958,9992.427178
23251.485854,-803.988394,3445.664544,10241.280728
23251.488410,-191.425808,-823.130974,8977.870395
23251.490965,153.140646,1588.834206,9571.290400
23251.493520,-1875.972918,1416.550979,9934.999435
23251.496075,2354.537438,-210.568389,9533.005238
23251.498630,-4096.512291,1799.402595,9934.999435
23251.501185,2431.107762,-6585.047795,7733.602643
23251.503740,2852.244539,4977.071008,11064.411702
23251.506295,-784.845813,957.129040,9954.142016
23251.508850,2335.394858,-9169.296203,6833.901346
23251.511406,1473.978722,-880.558717,9284.151688
23251.513961,-957.129040,10183.852986,12710.673651
23251.516516,1148.554848,-8939.585234,6642.475538
23251.519071,2163.111630,172.283227,9092.725880
23251.521626,-1588.834206,8595.018779,12442.677520
23251.524181,650.847747,-6699.903280,8059.026517
23251.526736,38.285162,-2967.100024,8461.020714
23251.529291,1148.554848,6412.764568,11542.976222
23251.531846,1378.265818,-4268.795518,8556.733618
23251.534401,1607.976787,-1493.121302,9054.440718
23251.536956,-1282.552914,5187.639397,11217.552349
23251.539511,-727.418070,-3579.662610,8461.020714
23251.542067,2967.100024,-1837.687757,8843.872330
23251.544622,689.132909,6489.334891,11160.124606
23251.547177,-4249.652938,-1952.543242,8824.729749
23251.549732,3043.670347,-3081.955509,8422.735552
23251.552287,-6891.329088,8729.016845,11657.831707
23251.554842,-363.709035,-5570.491013,7235.895542
23251.557397,1378.265818,1473.978722,9418.149754
23251.559952,-2316.252277,9533.005238,12423.534939
23251.562507,-401.994197,-8327.022648,7235.895542
23251.565062,-1148.554848,76.570323,9226.723946
23251.567617,-1435.693560,7312.465866,11696.116869
23251.570173,440.279358,-4402.793584,8193.024582
23251.572728,-555.134843,-1129.412267,8748.159426
23251.575283,-1167.697429,2143.969050,9934.999435
23251.577838,-1225.125171,4058.227130,10528.419440
23251.580393,-1033.699363,-1320.838075,8748.159426
23251.582948,-1071.984525,555.134843,9456.434915
23251.585503,-2048.256146,4115.654872,10202.995566
23251.588058,38.285162,-2737.389054,8537.591037
23251.590613,976.271621,2316.252277,10068.997501
23251.593168,-4498.506488,765.703232,9896.714274
23251.595722,5627.918755,-4153.940034,8633.303941
23251.598276,-19.142581,6604.190376,11619.546546
23251.600830,2009.970984,-5149.354235,8059.026517
23251.603385,2124.826469,-3656.232933,8365.307810
23251.605939,-3905.086483,8882.157491,12174.681389
23251.608493,-1359.123237,1550.549045,10336.993632
23251.611048,2699.103893,-8154.739421,6738.188442
23251.613602,1071.984525,8709.874264,11810.972354
23251.616156,650.847747,1244.267752,10298.708470
23251.618711,1473.978722,-6565.905214,7829.315547
23251.621265,-746.560651,2928.814862,10356.136213
23251.623819,1205.982590,1263.410333,9934.999435
23251.626373,1722.832272,-4326.223261,8537.591037
23251.628928,746.560651,2909.672282,10509.276859
23251.631482,-669.990328,1110.269686,9915.856854
23251.634036,-267.996131,-3771.088418,8307.880067
23251.636591,1837.687757,1837.687757,9992.427178
23251.639145,-344.566454,6278.766502,11274.980091
23251.641699,-3464.807125,-5321.637462,7829.315547
23251.644254,2220.539373,937.986459,9571.290400
23251.646808,-6872.186507,7369.893608,11408.978157
23251.649362,1052.841944,-7886.743290,6489.334891
23251.651916,440.279358,5321.637462,10375.278794
23251.654471,-2354.537438,7465.606512,11830.114934
23251.657025,-593.420005,-9667.003304,6680.760699
23251.659579,-1110.269686,3215.953574,10222.138147
23251.662134,-1359.123237,6431.907149,11715.259450
23251.664688,191.425808,-5800.201982,7580.461997
23251.667242,-497.707101,38.285162,9054.440718
23251.669797,-401.994197,5781.059402,11121.839445
23251.672351,-1875.972918,3656.232933,10298.708470
23251.674905,-708.275490,-2431.107762,8461.020714
23251.677459,-937.986459,2009.970984,9858.429112
23251.680014,-1684.547110,4498.506488,10375.278794
23251.682568,-631.705166,-4460.221326,7982.456194
23251.685122,1722.832272,2718.246474,10088.140082
23251.687677,-5474.778109,3043.670347,10585.847182
23251.690231,5206.781978,-8078.169098,7408.178770
23251.692785,1244.267752,6987.041992,11600.403965
23251.695320,421.136778,-1588.834206,9245.866526
23251.697854,2316.252277,-8135.596840,7063.612315
23251.700388,-3464.807125,9667.003304,12289.536874
23251.702922,-1588.834206,6240.481341,11562.118803
23251.705457,2277.967115,-9303.294269,6489.334891
23251.707991,1320.838075,5149.354235,10528.419440
23251.710525,-708.275490,4058.227130,10911.271056
23251.713060,1244.267752,-6719.045861,7810.172966
23251.715594,-593.420005,1263.410333,9839.286531
23251.718128,1588.834206,2488.535504,10547.562021
23251.720662,650.847747,-4632.504554,8307.880067
23251.723197,861.416136,1129.412267,9820.143950
23251.725731,38.285162,3177.668413,10796.415571
23251.728265,-516.849682,-2603.390989,8709.874264
23251.730800,2871.387120,-1646.261949,9073.583299
23251.733334,-229.710970,7006.184573,11064.411702
23251.735868,-5551.348432,1148.554848,9781.858789
23251.738402,3062.812928,-7599.604578,7178.467800
23251.740937,-4670.789715,10738.987829,12289.536874
23251.743471,-2852.244539,-210.568389,8997.012976
23251.746005,3177.668413,-5915.057467,7197.610381
23251.748540,-746.560651,11983.255581,12978.669782
23251.751074,-1378.265818,-2545.963246,9092.725880
23251.753608,-1282.552914,-7025.327154,7063.612315
23251.756142,-535.992262,7867.600709,11676.974288
23251.758677,-191.425808,1531.406464,10107.282662
23251.761211,-267.996131,-5015.356170,7657.032320
23251.763745,-1397.408398,2986.242605,10068.997501
23251.766280,-1684.547110,6106.483275,10911.271056
23251.768814,-1569.691626,-325.423874,9188.438784
23251.771348,-995.414202,-2009.970984,8480.163294
23251.773882,1091.127106,6106.483275,11179.267187
23251.776417,-2411.965181,1607.976787,9896.714274
23251.778951,2220.539373,-6642.475538,7331.608446
23251.781485,440.279358,8078.169098,11964.113000
23251.784020,-2220.539373,-4000.799387,8709.874264
23251.786554,5130.211654,-6776.473603,7446.463931
23251.789088,-1722.832272,9915.856854,12595.818166
23251.791622,-172.283227,-4766.502619,8461.020714
23251.794157,1703.689691,-3809.373579,8384.450390
23251.796693,1378.265818,7657.032320,11657.831707
23251.799230,-0.000000,2679.961312,10451.849117
23251.801767,2239.681954,-7829.315547,6929.614250
23251.804303,-995.414202,4977.071008,11102.696864
23251.806840,229.710970,1837.687757,10547.562021
23251.809377,708.275490,-5474.778109,8039.883936
23251.811913,2526.820666,2086.541307,10317.851051
23251.814450,708.275490,2526.820666,10490.134278
23251.816987,363.709035,-3847.658741,8327.022648
23251.819524,-1014.556782,-267.996131,9322.436850
23251.822060,1435.693560,4249.652938,10834.700733
23251.824597,-2411.965181,-2928.814862,8614.161360
23251.827134,4173.082614,-3120.240670,8307.880067
23251.829670,689.132909,6910.471669,11370.692995
23251.832207,-6202.196179,3196.810994,10566.704602
23251.834744,2565.105827,-8097.311678,6451.049730
23251.837280,-1875.972918,10528.419440,11772.687192
23251.839817,-1052.841944,1722.832272,10126.425243
23251.842354,172.283227,-9016.155557,6565.905214
23251.844890,-689.132909,7542.176835,11619.546546
23251.847427,-2182.254211,2794.816797,10777.272990
23251.849964,-459.421939,-6585.047795,7216.752962
23251.852501,-555.134843,2699.103893,9820.143950
23251.855037,76.570323,5225.924558,11026.126541
23251.857574,-2086.541307,-2660.818731,8499.305875
23251.860111,-497.707101,-3426.521963,8097.311678
23251.862647,-784.845813,4728.217458,10643.274925
23251.865184,-1531.406464,4019.941968,10394.421374
23251.867721,-803.988394,-6163.911018,7331.608446
23251.870257,2277.967115,3924.229064,10528.419440
23251.872794,-5111.069074,5149.354235,11045.269122
23251.875331,3637.090352,-12308.679454,5991.627790
23251.877867,2775.674216,6393.621987,11428.120738
23251.880404,-1665.404530,3483.949706,10930.413637
23251.882941,2450.250342,-12480.962682,5800.201982
23251.885478,-1741.974853,9399.007173,12098.111066
23251.888014,-1895.115499,2048.256146,10547.562021
23251.890551,2813.959378,-9609.575562,6833.901346
23251.893088,1741.974853,38.285162,9016.155557
23251.895624,-1378.265818,8403.592971,12308.679454
23251.898163,1148.554848,-6068.198114,8097.311678
23251.900702,478.564520,-2488.535504,8729.016845
23251.903241,2009.970984,4977.071008,11313.265253
23251.905779,-114.855485,-2354.537438,9035.298138
23251.908318,267.996131,-3120.240670,8499.305875
23251.910857,-401.994197,3522.234867,10643.274925
23251.913396,1148.554848,1416.550979,9973.284597
23251.915935,-1129.412267,-4709.074877,7925.028451
23251.918473,4058.227130,2220.539373,9973.284597
23251.921012,-4804.787781,6738.188442,11504.691061
23251.923551,-4268.795518,-2737.389054,8824.729749
23251.926090,2679.961312,-4058.227130,7503.891674
23251.928628,-2756.531635,13074.382686,12787.243974
23251.931167,650.847747,-4211.367776,8097.311678
23251.933706,497.707101,-5513.063270,7312.465866
23251.936245,-1244.267752,10011.569758,12538.390424
23251.938784,-1856.830338,-2105.683888,9379.864592
23251.941322,440.279358,-4192.225195,7905.885870
23251.943861,-1225.125171,5359.922624,10834.700733
23251.946400,229.710970,1186.840010,9801.001370
23251.948939,-1627.119368,-1818.545176,8633.303941
23251.951477,-669.990328,3790.230998,10413.563955
23251.954016,-1320.838075,1990.828403,10662.417506
23251.956555,-478.564520,1071.984525,9552.147819
23251.959094,-1397.408398,-2392.822600,8518.448456
23251.961633,2316.252277,2679.961312,10164.710405
23251.964171,-3943.371645,3369.094221,10604.989763
23251.966710,2526.820666,-9781.858789,6776.473603
23251.969249,3062.812928,4804.787781,11121.839445
23251.971788,-1990.828403,3292.523898,10853.843314
23251.974326,2220.539373,-11370.692995,6183.053598
23251.976865,-1282.552914,7963.313613,11772.687192
23251.979404,-1741.974853,2986.242605,10758.130410
23251.981943,2909.672282,-9513.862658,6431.907149
23251.984482,1033.699363,8633.303941,11830.114934
23251.987020,-1244.267752,8327.022648,12270.394293
23251.989559,976.271621,-4460.221326,8575.876198
23251.992098,937.986459,-3694.518094,8461.020714
23251.994637,1799.402595,4460.221326,11102.696864
23251.997176,229.710970,-746.560651,9437.292334
23251.999716,401.994197,-3215.953574,8690.731683
23252.002256,-1225.125171,1818.545176,10107.282662
23252.004796,2220.539373,1569.691626,9973.284597
23252.007337,-2641.676150,-2182.254211,8537.591037
23252.009877,2699.103893,-2622.533570,8575.876198
23252.012417,-2565.105827,9322.436850,12366.107197
23252.014957,-3503.092286,-5034.498750,8193.024582
23252.017498,1971.685822,-8786.444587,6144.768437
23252.020038,-880.558717,9265.009107,11504.691061
23252.022578,-2316.252277,4249.652938,10796.415571
23252.025119,19.142581,-10279.565890,6163.911018
23252.027659,-976.271621,6144.768437,11179.267187
23252.030199,-1684.547110,4728.217458,11504.691061
23252.032739,650.847747,-6278.766502,7389.036189
23252.035280,-823.130974,1952.543242,9686.145885
23252.037820,-823.130974,5130.211654,10834.700733
23252.040360,-2048.256146,-2048.256146,8518.448456
23252.042901,-746.560651,-114.855485,9054.440718
