#time,accel_x,accel_y,accel_z
18792.348964,-114.855485,172.283227,-9973.284597
18792.351432,-363.709035,516.849682,-10030.712339
18792.353900,229.710970,555.134843,-10107.282662
18792.356367,191.425808,-172.283227,-9609.575562
18792.358835,401.994197,344.566454,-9934.999435
18792.361303,1473.978722,899.701298,-9724.431046
18792.363770,-976.271621,631.705166,-10088.140082
18792.366238,-593.420005,1454.836141,-10336.993632
18792.368706,-248.853550,-593.420005,-9686.145885
18792.371210,1225.125171,-899.701298,-9513.862658
18792.373715,-0.000000,-19.142581,-9992.427178
18792.376219,-593.420005,976.271621,-10317.851051
18792.378723,937.986459,803.988394,-9820.143950
18792.381228,535.992262,-1282.552914,-9035.298138
18792.383732,-114.855485,2699.103893,-10490.134278
18792.386236,-1091.127106,-555.134843,-9743.573627
18792.388741,-133.998066,-1665.404530,-9513.862658
18792.391245,-497.707101,2009.970984,-10872.985894
18792.393749,-1091.127106,-1052.841944,-9877.571693
18792.396254,-1416.550979,-2737.389054,-8901.300072
18792.398758,-114.855485,3101.098090,-10777.272990
18792.401263,-440.279358,-133.998066,-10700.702667
18792.403767,-1110.269686,-1569.691626,-9360.722011
18792.406271,842.273555,95.712904,-9820.143950
18792.408776,-287.138712,803.988394,-10107.282662
18792.411280,-976.271621,-555.134843,-9686.145885
18792.413784,-937.986459,-823.130974,-9877.571693
18792.416289,-287.138712,1129.412267,-10336.993632
18792.418793,95.712904,95.712904,-9743.573627
18792.421298,-861.416136,-1167.697429,-9341.579430
18792.423802,-1416.550979,1684.547110,-10585.847182
18792.426306,593.420005,-612.562586,-9743.573627
18792.428811,114.855485,-1569.691626,-9226.723946
18792.431315,-114.855485,1799.402595,-10413.563955
18792.433819,-1014.556782,1435.693560,-10470.991698
18792.436324,-1684.547110,-1167.697429,-9590.432981
18792.438828,114.855485,-440.279358,-9686.145885
18792.441332,133.998066,1033.699363,-10279.565890
18792.443837,-1359.123237,-38.285162,-9896.714274
18792.446341,-823.130974,-1818.545176,-9437.292334
18792.448846,-995.414202,2794.816797,-10777.272990
18792.451350,-1110.269686,-76.570323,-9934.999435
18792.453854,133.998066,-1665.404530,-9188.438784
18792.456359,-1818.545176,1378.265818,-10356.136213
18792.458863,38.285162,1895.115499,-10470.991698
18792.461367,19.142581,-4173.082614,-8614.161360
18792.463872,-1225.125171,3426.521963,-9533.005238
18792.466376,3617.947771,2603.390989,-10968.698798
18792.468881,-1990.828403,-4938.785846,-8039.883936
18792.471407,708.275490,5570.491013,-11868.400096
18792.473933,4364.508422,-1454.836141,-9226.723946
18792.476459,-2431.107762,-4249.652938,-8231.309744
18792.478985,2775.674216,9188.438784,-12806.386555
18792.481511,-3235.096155,-5187.639397,-8078.169098
18792.484038,2029.113565,-440.279358,-10011.569758
18792.486564,1665.404530,4441.078746,-11217.552349
18792.489090,-1684.547110,-3675.375514,-8729.016845
18792.491616,401.994197,1531.406464,-10451.849117
18792.494142,516.849682,1646.261949,-10394.421374
18792.496669,-38.285162,497.707101,-9877.571693
18792.499195,612.562586,-57.427742,-9609.575562
18792.501721,1378.265818,76.570323,-9801.001370
18792.504247,287.138712,976.271621,-10432.706536
18792.506773,-344.566454,191.425808,-9934.999435
18792.509299,-803.988394,-306.281293,-9494.720077
18792.511826,-191.425808,1129.412267,-10298.708470
18792.514352,478.564520,-229.710970,-9724.431046
18792.516878,76.570323,-57.427742,-9877.571693
18792.519404,421.136778,899.701298,-10279.565890
18792.521930,-267.996131,746.560651,-10164.710405
18792.524457,-363.709035,-535.992262,-9552.147819
18792.526983,-516.849682,650.847747,-9954.142016
18792.529509,535.992262,727.418070,-10126.425243
18792.532035,191.425808,823.130974,-10030.712339
18792.534561,2124.826469,133.998066,-9609.575562
18792.537088,-1186.840010,1148.554848,-10068.997501
18792.539614,-1473.978722,1378.265818,-10432.706536
18792.542140,-114.855485,-899.701298,-9571.290400
18792.544666,-38.285162,267.996131,-10030.712339
18792.547192,937.986459,1416.550979,-10432.706536
18792.549718,-574.277424,-593.420005,-9533.005238
18792.552245,459.421939,-306.281293,-9686.145885
18792.554771,-842.273555,1761.117434,-10145.567824
18792.557297,440.279358,-421.136778,-9705.288466
18792.559823,-3426.521963,746.560651,-10107.282662
18792.562349,3598.805190,1569.691626,-10413.563955
18792.564876,-1263.410333,-4479.363907,-8365.307810
18792.567402,-4613.361973,6259.623922,-12059.825904
18792.569928,555.134843,-880.558717,-9762.716208
18792.572467,-2392.822600,-7810.172966,-7408.178770
18792.575006,4613.361973,9131.011042,-12806.386555
18792.577545,-2488.535504,-6738.188442,-7791.030386
18792.580083,-1071.984525,-95.712904,-9839.286531
18792.582622,555.134843,5953.342629,-11868.400096
18792.585161,-1799.402595,-4517.649069,-8173.882002
18792.587700,-746.560651,2086.541307,-10681.560086
18792.590239,440.279358,861.416136,-10528.419440
18792.592778,-976.271621,-1454.836141,-9456.434915
18792.595317,-38.285162,-325.423874,-9533.005238
18792.597855,-478.564520,-306.281293,-9781.858789
18792.600394,-1971.685822,1129.412267,-10604.989763
18792.602933,-363.709035,306.281293,-9858.429112
18792.605472,784.845813,-1033.699363,-9341.579430
18792.608011,-210.568389,1167.697429,-10164.710405
18792.610550,-803.988394,0.000000,-9934.999435
18792.613089,-363.709035,-1263.410333,-9494.720077
18792.615627,612.562586,-76.570323,-9896.714274
18792.618166,-669.990328,1512.263883,-10336.993632
18792.620705,-823.130974,-325.423874,-9647.860723
18792.623244,-344.566454,-803.988394,-9494.720077
18792.625783,-133.998066,153.140646,-10030.712339
18792.628322,-1033.699363,95.712904,-10088.140082
18792.630861,-861.416136,-1512.263883,-9475.577496
18792.633400,133.998066,421.136778,-9992.427178
18792.635938,153.140646,555.134843,-10068.997501
18792.638477,-2411.965181,-478.564520,-9915.856854
18792.641016,382.851616,803.988394,-10049.854920
18792.643555,-823.130974,-1052.841944,-9360.722011
18792.646094,555.134843,267.996131,-10049.854920
18792.648633,-1397.408398,976.271621,-10317.851051
18792.651172,1110.269686,-2718.246474,-8997.012976
18792.653710,-2297.109696,1799.402595,-10202.995566
18792.656249,1646.261949,3828.516160,-11083.554283
18792.658788,-2584.248408,-3885.943902,-8882.157491
18792.661327,-1052.841944,3522.234867,-10968.698798
18792.663866,4785.645200,-57.427742,-9494.720077
18792.666405,-3943.371645,-4709.074877,-8403.592971
18792.668944,1416.550979,10470.991698,-13418.949141
18792.671482,76.570323,-6738.188442,-7350.751027
18792.674031,363.709035,1378.265818,-10183.852986
18792.676580,344.566454,5800.201982,-11887.542677
18792.679129,-2507.678085,-6431.907149,-7523.034254
18792.681677,2450.250342,995.414202,-10030.712339
18792.684226,1875.972918,2565.105827,-10528.419440
18792.686775,-650.847747,-2526.820666,-9743.573627
18792.689323,-1627.119368,-784.845813,-9322.436850
18792.691872,248.853550,1378.265818,-10145.567824
18792.694421,669.990328,2258.824534,-10451.849117
18792.696969,1493.121302,-2718.246474,-8805.587168
18792.699518,1320.838075,-535.992262,-9686.145885
18792.702067,-382.851616,2641.676150,-10681.560086
18792.704616,-1703.689691,19.142581,-9820.143950
18792.707164,535.992262,-363.709035,-9609.575562
18792.709713,861.416136,-823.130974,-9609.575562
18792.712262,-574.277424,1167.697429,-10088.140082
18792.714810,-19.142581,727.418070,-10183.852986
18792.717359,287.138712,-1052.841944,-9341.579430
18792.719908,574.277424,191.425808,-9877.571693
18792.722456,1473.978722,1225.125171,-9992.427178
18792.725005,976.271621,-133.998066,-9494.720077
18792.727554,-631.705166,191.425808,-9762.716208
18792.730103,-363.709035,2105.683888,-10490.134278
18792.732651,803.988394,-363.709035,-9494.720077
18792.735200,-1225.125171,-1071.984525,-9647.860723
18792.737749,784.845813,1703.689691,-10700.702667
18792.740297,823.130974,0.000000,-9724.431046
18792.742846,1091.127106,-2392.822600,-8729.016845
18792.745395,-248.853550,3024.527766,-10432.706536
18792.747943,-478.564520,287.138712,-10011.569758
18792.750492,363.709035,191.425808,-9839.286531
18792.753041,4651.647134,-76.570323,-10049.854920
18792.755590,-1703.689691,-2909.672282,-8652.446522
18792.758138,-2890.529701,6240.481341,-11887.542677
18792.760687,229.710970,-4230.510357,-8461.020714
18792.763236,-2469.392923,-3924.229064,-8786.444587
18792.765784,4498.506488,8882.157491,-12921.242040
18792.768333,-3522.234867,-8748.159426,-7006.184573
18792.770882,-0.000000,2947.957443,-11083.554283
18792.773430,-555.134843,4498.506488,-11294.122672
18792.775985,-2431.107762,-5359.922624,-8001.598774
18792.778539,880.558717,3062.812928,-10930.413637
18792.781094,248.853550,-38.285162,-10164.710405
18792.783648,-2029.113565,-1071.984525,-9628.718142
18792.786203,-267.996131,-555.134843,-9647.860723
18792.788757,-937.986459,114.855485,-10011.569758
18792.791312,-669.990328,1186.840010,-10490.134278
18792.793866,-325.423874,-880.558717,-9418.149754
18792.796421,401.994197,-478.564520,-9475.577496
18792.798975,-842.273555,1761.117434,-10413.563955
18792.801530,-1359.123237,38.285162,-10049.854920
18792.804084,-287.138712,-421.136778,-9801.001370
18792.806639,172.283227,-229.710970,-9743.573627
18792.809193,-995.414202,957.129040,-10202.995566
18792.811748,-880.558717,-478.564520,-9743.573627
18792.814302,-497.707101,-382.851616,-9762.716208
18792.816857,-1091.127106,421.136778,-10164.710405
18792.819411,-267.996131,38.285162,-10011.569758
18792.821966,-153.140646,-1186.840010,-9571.290400
18792.824520,-899.701298,421.136778,-9915.856854
18792.827075,-1052.841944,-344.566454,-9724.431046
18792.829629,-784.845813,918.843878,-10202.995566
18792.832184,-267.996131,-38.285162,-9934.999435
18792.834738,746.560651,-976.271621,-9590.432981
18792.837293,-2124.826469,650.847747,-10145.567824
18792.839847,1741.974853,172.283227,-9705.288466
18792.842402,-1856.830338,-2794.816797,-8977.870395
18792.844956,1359.123237,3790.230998,-11294.122672
18792.847511,1607.976787,-3081.955509,-9647.860723
18792.850065,-4670.789715,-842.273555,-9494.720077
18792.852620,3847.658741,5149.354235,-11753.544611
18792.855174,-133.998066,-7197.610381,-7235.895542
18792.857729,-1282.552914,6642.475538,-11983.255581
18792.860283,1091.127106,2718.246474,-10490.134278
18792.862838,-2507.678085,-6412.764568,-7427.321350
18792.865392,1301.695494,6546.762634,-12040.683323
18792.867947,-937.986459,-1205.982590,-9188.438784
18792.870501,248.853550,-4249.652938,-8556.733618
18792.873056,2699.103893,4249.652938,-11408.978157
18792.875610,-191.425808,-153.140646,-9781.858789
18792.878168,-1033.699363,-899.701298,-9226.723946
18792.880725,-1129.412267,-401.994197,-9667.003304
18792.883282,1167.697429,3771.088418,-11160.124606
18792.885840,1512.263883,-2354.537438,-8997.012976
18792.888397,880.558717,-1703.689691,-9303.294269
18792.890955,-325.423874,3081.955509,-10815.558152
18792.893512,-2392.822600,555.134843,-10088.140082
18792.896069,1052.841944,-555.134843,-9628.718142
18792.898627,1569.691626,-1435.693560,-9303.294269
18792.901184,153.140646,1091.127106,-10126.425243
18792.903741,-344.566454,995.414202,-10260.423309
18792.906299,612.562586,-957.129040,-9571.290400
18792.908856,2029.113565,1263.410333,-10107.282662
18792.911414,-631.705166,497.707101,-10030.712339
18792.913971,-957.129040,114.855485,-9724.431046
18792.916528,248.853550,325.423874,-9877.571693
18792.919086,306.281293,689.132909,-10030.712339
18792.921643,1186.840010,-669.990328,-9743.573627
18792.924200,1569.691626,-669.990328,-9418.149754
18792.926758,-1875.972918,727.418070,-9954.142016
18792.929315,-363.709035,3330.809059,-10872.985894
18792.931873,-957.129040,-1225.125171,-9437.292334
18792.934430,3885.943902,76.570323,-9609.575562
18792.936987,-2373.680019,325.423874,-9934.999435
18792.939545,-957.129040,3120.240670,-11102.696864
18792.942102,1799.402595,-4632.504554,-8480.163294
18792.944660,-3177.668413,-5245.067139,-7791.030386
18792.947217,-1052.841944,9494.720077,-13227.523333
18792.949774,-1339.980656,-5838.487144,-8231.309744
18792.952332,-727.418070,-2335.394858,-9226.723946
18792.954889,3311.666478,6719.045861,-12270.394293
18792.957446,-3254.238736,-5647.061336,-7733.602643
18792.960004,-1071.984525,1588.834206,-10490.134278
18792.962561,363.709035,3713.660675,-11140.982026
18792.965119,-1397.408398,-2947.957443,-8920.442653
18792.967676,344.566454,-880.558717,-9609.575562
18792.970233,-1033.699363,229.710970,-10164.710405
18792.972791,-1378.265818,1071.984525,-10356.136213
18792.975348,-287.138712,-1703.689691,-9705.288466
18792.977905,-38.285162,-880.558717,-9781.858789
18792.980466,57.427742,1914.258080,-10394.421374
18792.983026,-1071.984525,114.855485,-9743.573627
18792.985587,-267.996131,-842.273555,-9552.147819
18792.988147,-593.420005,-248.853550,-9973.284597
18792.990707,-172.283227,1588.834206,-10394.421374
18792.993268,-689.132909,-478.564520,-9571.290400
18792.995828,-1205.982590,-555.134843,-9609.575562
18792.998388,-957.129040,1320.838075,-10394.421374
18793.000949,-421.136778,-1225.125171,-9533.005238
18793.003509,344.566454,-401.994197,-9877.571693
18793.006069,-57.427742,363.709035,-10164.710405
18793.008630,-1875.972918,-421.136778,-9877.571693
18793.011190,-1301.695494,1129.412267,-9992.427178
18793.013750,-172.283227,-382.851616,-9781.858789
18793.016311,861.416136,-1052.841944,-9781.858789
18793.018871,-1186.840010,1033.699363,-10222.138147
18793.021431,1588.834206,-1378.265818,-9150.153622
18793.023992,-2622.533570,-650.847747,-9513.862658
18793.026552,1818.545176,3196.810994,-10853.843314
18793.029113,-3675.375514,-3541.377448,-9035.298138
18793.031673,2067.398726,2622.533570,-10949.556218
18793.034233,3043.670347,-2699.103893,-8671.589102
18793.036794,-3713.660675,1186.840010,-10222.138147
18793.039354,3943.371645,5130.211654,-11408.978157
18793.041914,727.418070,-5149.354235,-7925.028451
18793.044475,612.562586,248.853550,-9609.575562
18793.047035,172.283227,6278.766502,-12040.683323
18793.049595,-2182.254211,-6642.475538,-7446.463931
18793.052156,1914.258080,555.134843,-10030.712339
18793.054716,1990.828403,3407.379382,-10987.841379
18793.057276,-555.134843,-3043.670347,-8767.302006
18793.059837,1167.697429,516.849682,-9820.143950
18793.062397,631.705166,3273.381317,-10604.989763
18793.064958,-669.990328,-1033.699363,-9418.149754
18793.067518,-842.273555,-172.283227,-9781.858789
18793.070078,1378.265818,2182.254211,-10892.128475
18793.072639,363.709035,1378.265818,-10222.138147
18793.075199,-478.564520,-1205.982590,-9379.864592
18793.077759,478.564520,210.568389,-9801.001370
18793.080320,-957.129040,267.996131,-9954.142016
18793.082881,382.851616,1225.125171,-10317.851051
18793.085443,1550.549045,-708.275490,-9667.003304
18793.088004,382.851616,1052.841944,-10107.282662
18793.090566,19.142581,1071.984525,-10068.997501
18793.093127,-1703.689691,-803.988394,-9437.292334
18793.095689,727.418070,1837.687757,-10394.421374
18793.098250,1225.125171,19.142581,-9743.573627
18793.100812,823.130974,-1780.260014,-9284.151688
18793.103374,1263.410333,1588.834206,-10279.565890
18793.105935,-2220.539373,669.990328,-9915.856854
18793.108497,-1205.982590,2277.967115,-10604.989763
18793.111058,-899.701298,-555.134843,-9858.429112
18793.113620,4249.652938,133.998066,-9820.143950
18793.116181,-2316.252277,0.000000,-9934.999435
18793.118743,-363.709035,3598.805190,-10949.556218
18793.121304,708.275490,-4632.504554,-8403.592971
18793.123866,-5723.631659,3885.943902,-11466.405899
18793.126427,555.134843,5034.498750,-11734.402030
18793.128989,-2143.969050,-11447.263318,-5704.489078
18793.131551,3273.381317,6565.905214,-11983.255581
18793.134112,-1244.267752,-918.843878,-9456.434915
18793.136674,-3637.090352,-4709.074877,-7867.600709
18793.139235,-784.845813,2335.394858,-10700.702667
18793.141797,440.279358,3522.234867,-10987.841379
18793.144358,-440.279358,-3215.953574,-8729.016845
18793.146920,19.142581,-1320.838075,-9456.434915
18793.149481,-1780.260014,1646.261949,-10777.272990
18793.152043,-1761.117434,516.849682,-10317.851051
18793.154604,-133.998066,-2469.392923,-9111.868461
18793.157166,191.425808,1952.543242,-10681.560086
18793.159728,-248.853550,421.136778,-9877.571693
18793.162289,-1454.836141,-1359.123237,-9265.009107
18793.164851,38.285162,2469.392923,-10566.704602
18793.167412,-880.558717,-210.568389,-9877.571693
18793.169974,-574.277424,229.710970,-10068.997501
18793.172535,-229.710970,-842.273555,-9513.862658
18793.175097,-1588.834206,287.138712,-10049.854920
18793.177658,-727.418070,1359.123237,-10356.136213
18793.180220,-172.283227,-1684.547110,-9513.862658
18793.182781,-1014.556782,191.425808,-10107.282662
18793.185343,-1397.408398,-287.138712,-9992.427178
18793.187904,-976.271621,172.283227,-9858.429112
18793.190466,76.570323,248.853550,-9934.999435
18793.193027,325.423874,-1014.556782,-9590.432981
18793.195589,-1091.127106,1014.556782,-10260.423309
18793.198150,-172.283227,-861.416136,-9609.575562
18793.200712,-2737.389054,1301.695494,-9284.151688
18793.203273,1914.258080,2852.244539,-10968.698798
18793.205835,-2507.678085,-3292.523898,-9054.440718
18793.208396,612.562586,2967.100024,-10815.558152
18793.210958,3311.666478,-2679.961312,-8824.729749
18793.213519,-4479.363907,-497.707101,-9781.858789
18793.216080,4019.941968,7905.885870,-12519.247843
18793.218642,-229.710970,-9054.440718,-6431.907149
18793.221203,2258.824534,6106.483275,-11600.403965
18793.223765,-1167.697429,3101.098090,-10911.271056
18793.226326,-1933.400661,-7618.747158,-7293.323285
18793.228888,2105.683888,5206.781978,-11428.120738
18793.231449,401.994197,593.420005,-10126.425243
18793.234011,-38.285162,-3043.670347,-8901.300072
18793.236572,823.130974,-842.273555,-9322.436850
18793.239134,631.705166,4173.082614,-10949.556218
18793.241695,-593.420005,-38.285162,-9705.288466
18793.244257,-516.849682,-2354.537438,-9303.294269
18793.246818,823.130974,2545.963246,-10815.558152
18793.249380,631.705166,57.427742,-9781.858789
18793.251941,382.851616,-2641.676150,-8843.872330
18793.254502,-382.851616,1952.543242,-10509.276859
18793.257064,-421.136778,1837.687757,-10547.562021
18793.259625,995.414202,-1799.402595,-9207.581365
18793.262187,325.423874,669.990328,-9934.999435
18793.264748,-0.000000,2450.250342,-10566.704602
18793.267310,-842.273555,784.845813,-10049.854920
18793.269871,-229.710970,-1493.121302,-9379.864592
18793.272433,746.560651,2335.394858,-10700.702667
18793.274994,344.566454,57.427742,-9877.571693
18793.277556,1741.974853,-1703.689691,-8882.157491
18793.280117,-2009.970984,2488.535504,-10585.847182
18793.282679,-1454.836141,2813.959378,-10911.271056
18793.285240,-1473.978722,-2392.822600,-9265.009107
18793.287750,3694.518094,133.998066,-9839.286531
18793.290259,-3330.809059,2335.394858,-10700.702667
18793.292769,1129.412267,1205.982590,-10375.278794
18793.295278,-76.570323,-4479.363907,-8231.309744
18793.297788,-4709.074877,880.558717,-10202.995566
18793.300297,-401.994197,8422.735552,-13055.240106
18793.302807,-2488.535504,-11179.267187,-6527.620053
18793.305316,1990.828403,2354.537438,-10566.704602
18793.307826,880.558717,3464.807125,-11179.267187
18793.310335,-2986.242605,-6259.623922,-7733.602643
18793.312845,421.136778,4938.785846,-11638.689126
18793.315354,-440.279358,1895.115499,-10451.849117
18793.317864,-478.564520,-3483.949706,-8575.876198
18793.320373,-995.414202,650.847747,-10260.423309
18793.322883,-2163.111630,2258.824534,-10968.698798
18793.325392,-1588.834206,-1971.685822,-9360.722011
18793.327901,669.990328,-1933.400661,-9016.155557
18793.330411,133.998066,574.277424,-10202.995566
18793.332920,516.849682,1627.119368,-10317.851051
18793.335430,-1665.404530,-2048.256146,-9265.009107
18793.337939,-1646.261949,2699.103893,-10719.845248
18793.340449,-76.570323,1205.982590,-10413.563955
18793.342958,-535.992262,-2354.537438,-9131.011042
18793.345468,-1110.269686,708.275490,-10202.995566
18793.347977,-1129.412267,1799.402595,-10815.558152
18793.350487,-803.988394,-1761.117434,-9322.436850
18793.352996,-153.140646,-535.992262,-9686.145885
18793.355506,-1225.125171,325.423874,-10107.282662
18793.358015,-1416.550979,-612.562586,-9877.571693
18793.360525,-1186.840010,38.285162,-10088.140082
18793.363034,1607.976787,191.425808,-9915.856854
18793.365544,-1627.119368,-210.568389,-9667.003304
18793.368053,1550.549045,-459.421939,-9533.005238
18793.370563,-2794.816797,-555.134843,-9705.288466
18793.373072,2431.107762,1722.832272,-10566.704602
18793.375582,-2852.244539,-2852.244539,-9131.011042
18793.378091,2029.113565,2622.533570,-10758.130410
18793.380601,2048.256146,-3598.805190,-8403.592971
18793.383110,-4058.227130,1454.836141,-10547.562021
18793.385620,4670.789715,5761.916821,-11600.403965
18793.388141,-95.712904,-8977.870395,-6278.766502
18793.390663,3005.385186,7676.174901,-11868.400096
18793.393185,-287.138712,6814.758765,-12270.394293
18793.395706,-2565.105827,-7025.327154,-7561.319416
18793.398228,1588.834206,267.996131,-9915.856854
18793.400749,2431.107762,3866.801322,-11102.696864
18793.403271,-95.712904,-3809.373579,-8556.733618
18793.405793,995.414202,574.277424,-9839.286531
18793.408314,325.423874,4345.365842,-11102.696864
18793.410836,-1014.556782,-650.847747,-9513.862658
18793.413357,-287.138712,-1473.978722,-9609.575562
18793.415879,95.712904,1990.828403,-10662.417506
18793.418400,-210.568389,363.709035,-9801.001370
18793.420922,-957.129040,-440.279358,-9762.716208
18793.423444,344.566454,1799.402595,-10604.989763
18793.425965,555.134843,1225.125171,-10451.849117
18793.428487,57.427742,-1110.269686,-9437.292334
18793.431008,-172.283227,1359.123237,-10068.997501
18793.433530,-306.281293,1244.267752,-10241.280728
18793.436052,497.707101,-267.996131,-9762.716208
18793.438573,19.142581,1110.269686,-10145.567824
18793.441095,-497.707101,535.992262,-10088.140082
18793.443616,937.986459,-459.421939,-9399.007173
18793.446138,-1646.261949,1359.123237,-10241.280728
18793.448660,-306.281293,2450.250342,-10719.845248
18793.451181,-1435.693560,-1818.545176,-9360.722011
18793.453703,2411.965181,-229.710970,-9743.573627
18793.456224,-1780.260014,612.562586,-10107.282662
18793.458746,-459.421939,4383.651003,-11332.407834
18793.461268,1129.412267,-5053.641331,-8039.883936
18793.463789,-4938.785846,3771.088418,-11255.837510
18793.466311,478.564520,6106.483275,-12002.398162
18793.468832,-3215.953574,-11581.261384,-5895.914886
18793.471354,2718.246474,5130.211654,-11676.974288
18793.473875,-976.271621,153.140646,-9896.714274
18793.476397,-2373.680019,-4919.643266,-8288.737486
18793.478919,1397.408398,5934.200048,-11830.114934
18793.481440,-784.845813,-248.853550,-9590.432981
18793.483962,-574.277424,-2373.680019,-8997.012976
18793.486483,-1761.117434,2335.394858,-10872.985894
18793.489014,-1722.832272,2775.674216,-11179.267187
18793.491544,-2201.396792,-478.564520,-9915.856854
18793.494074,421.136778,-2641.676150,-8882.157491
18793.496604,-38.285162,1512.263883,-10336.993632
18793.499134,-1416.550979,1493.121302,-10470.991698
18793.501664,-191.425808,-1493.121302,-9590.432981
18793.504194,248.853550,-229.710970,-9820.143950
18793.506724,-937.986459,2163.111630,-10451.849117
18793.509254,-1052.841944,-325.423874,-9552.147819
18793.511785,-593.420005,-1971.685822,-9437.292334
18793.514315,172.283227,1454.836141,-10585.847182
18793.516845,-1244.267752,-363.709035,-9781.858789
18793.519375,-669.990328,-2967.100024,-8843.872330
18793.521905,-344.566454,535.992262,-10088.140082
18793.524435,-0.000000,1933.400661,-10738.987829
18793.526965,497.707101,-2794.816797,-9016.155557
18793.529495,-516.849682,535.992262,-9858.429112
18793.532025,19.142581,1129.412267,-10183.852986
18793.534556,-2928.814862,-535.992262,-9839.286531
18793.537086,2699.103893,172.283227,-10145.567824
18793.539616,-3483.949706,-899.701298,-9647.860723
18793.542146,2928.814862,727.418070,-10088.140082
18793.544676,-1033.699363,-3330.809059,-8518.448456
18793.547206,-899.701298,5895.914886,-11944.970419
18793.549736,4383.651003,-1799.402595,-12117.253646
18793.552266,191.425808,-9169.296203,-6412.764568
18793.554796,2890.529701,6565.905214,-11657.831707
18793.557327,-1397.408398,3062.812928,-10700.702667
18793.559857,-2258.824534,-7197.610381,-7599.604578
18793.562387,1914.258080,5723.631659,-11772.687192
18793.564917,306.281293,306.281293,-10011.569758
18793.567447,-1588.834206,-4326.223261,-8403.592971
18793.569977,765.703232,4479.363907,-11274.980091
18793.572507,95.712904,2718.246474,-10413.563955
18793.575037,-344.566454,-2679.961312,-8843.872330
18793.577567,516.849682,516.849682,-10375.278794
18793.580098,-287.138712,2220.539373,-10662.417506
18793.582628,172.283227,-1627.119368,-10241.280728
18793.585158,-535.992262,-2354.537438,-9150.153622
18793.587688,57.427742,1282.552914,-10700.702667
18793.590226,650.847747,1665.404530,-10222.138147
18793.592763,-19.142581,-1933.400661,-9016.155557
18793.595301,631.705166,1205.982590,-10088.140082
18793.597839,918.843878,1741.974853,-10413.563955
18793.600376,-95.712904,-899.701298,-9552.147819
18793.602914,344.566454,861.416136,-10049.854920
18793.605452,1033.699363,746.560651,-10011.569758
18793.607990,-1761.117434,669.990328,-10030.712339
18793.610527,803.988394,555.134843,-10088.140082
18793.613065,-19.142581,-842.273555,-9475.577496
18793.615603,1952.543242,-746.560651,-9552.147819
18793.618140,-2679.961312,2718.246474,-10719.845248
18793.620678,2411.965181,842.273555,-10068.997501
18793.623216,-2048.256146,-3732.803256,-8556.733618
18793.625754,-1990.828403,7523.034254,-12423.534939
18793.628291,727.418070,-3962.514226,-8595.018779
18793.630829,-2813.959378,-5398.207786,-8212.167163
18793.633367,3483.949706,8422.735552,-12940.384621
18793.635904,-4307.080680,-6776.473603,-7867.600709
18793.638442,325.423874,574.277424,-10260.423309
18793.640980,708.275490,4077.369710,-10968.698798
18793.643517,-2067.398726,-3866.801322,-8154.739421
18793.646055,-95.712904,1493.121302,-9322.436850
18793.648593,-1359.123237,2699.103893,-10968.698798
18793.651131,-612.562586,-497.707101,-10030.712339
18793.653668,-689.132909,-3464.807125,-8575.876198
18793.656206,95.712904,957.129040,-10107.282662
18793.658744,-1780.260014,2048.256146,-10566.704602
18793.661281,210.568389,-1167.697429,-9552.147819
18793.663819,1225.125171,-535.992262,-9628.718142
18793.666357,-1282.552914,1531.406464,-10413.563955
18793.668895,-1569.691626,1129.412267,-10202.995566
18793.671432,-248.853550,-1837.687757,-9150.153622
18793.673970,-306.281293,363.709035,-10164.710405
18793.676508,-746.560651,1052.841944,-10451.849117
18793.679045,-880.558717,-1722.832272,-9399.007173
18793.681583,-1186.840010,-306.281293,-9762.716208
18793.684121,631.705166,2297.109696,-10681.560086
18793.686659,-1014.556782,-2316.252277,-9265.009107
18793.689196,-746.560651,1148.554848,-10068.997501
18793.691740,-2431.107762,1837.687757,-10413.563955
18793.694283,-669.990328,210.568389,-9896.714274
18793.696826,535.992262,-2048.256146,-9475.577496
18793.699369,-1627.119368,2105.683888,-10662.417506
18793.701913,-1052.841944,-1856.830338,-9571.290400
18793.704456,-3656.232933,861.416136,-10030.712339
18793.706999,4594.219392,3388.236802,-10872.985894
18793.709542,-1378.265818,-5857.629725,-7771.887805
18793.712086,-1569.691626,38.285162,-9724.431046
18793.714629,1205.982590,7312.465866,-12289.536874
18793.717172,-3235.096155,-5915.057467,-7695.317482
18793.719715,172.283227,3081.955509,-11045.269122
18793.722259,1895.115499,2239.681954,-10509.276859
18793.724802,-267.996131,-5704.489078,-8020.741355
18793.727345,325.423874,3885.943902,-11236.694930
18793.729888,937.986459,1263.410333,-10088.140082
18793.732432,-497.707101,-2086.541307,-8729.016845
18793.734975,1129.412267,2392.822600,-10394.421374
18793.737518,-363.709035,1110.269686,-10394.421374
18793.740061,210.568389,-1646.261949,-9533.005238
18793.742605,-229.710970,-957.129040,-9226.723946
18793.745148,842.273555,957.129040,-10107.282662
18793.747691,-937.986459,191.425808,-10164.710405
18793.750234,421.136778,114.855485,-10011.569758
18793.752778,1014.556782,76.570323,-9628.718142
18793.755321,1416.550979,689.132909,-9801.001370
18793.757864,555.134843,1014.556782,-9934.999435
18793.760407,-957.129040,-593.420005,-9743.573627
18793.762951,-421.136778,1454.836141,-10356.136213
18793.765494,2603.390989,478.564520,-9801.001370
18793.768037,-210.568389,-2354.537438,-8939.585234
18793.770580,-38.285162,2718.246474,-10892.128475
18793.773124,-2067.398726,1033.699363,-10279.565890
18793.775667,2239.681954,-325.423874,-9628.718142
18793.778210,325.423874,-2584.248408,-8901.300072
18793.780753,-650.847747,5895.914886,-11772.687192
18793.783297,2507.678085,-3637.090352,-8729.016845
18793.785840,-5015.356170,-2029.113565,-9245.866526
18793.788383,-210.568389,9628.718142,-13457.234302
18793.790926,-2947.957443,-9035.298138,-7216.752962
18793.793473,1856.830338,-191.425808,-9705.288466
18793.796020,784.845813,4249.652938,-11562.118803
18793.798567,-3005.385186,-4421.936165,-8365.307810
18793.801114,172.283227,3081.955509,-10949.556218
18793.803661,-76.570323,2048.256146,-10432.706536
18793.806208,1148.554848,-2335.394858,-9513.862658
18793.808755,-1933.400661,-1569.691626,-9628.718142
18793.811302,-1339.980656,1818.545176,-10815.558152
18793.813849,-1971.685822,-574.277424,-9915.856854
18793.816396,19.142581,-1684.547110,-9150.153622
18793.818943,-57.427742,1167.697429,-10183.852986
18793.821490,-1244.267752,995.414202,-10317.851051
18793.824037,-0.000000,-191.425808,-9896.714274
18793.826584,708.275490,-248.853550,-9647.860723
18793.829131,-1397.408398,287.138712,-9915.856854
18793.831678,-2143.969050,478.564520,-10068.997501
18793.834225,-1397.408398,-784.845813,-9954.142016
18793.836772,746.560651,-1435.693560,-9647.860723
18793.839319,612.562586,-57.427742,-9743.573627
18793.841866,-1052.841944,650.847747,-10126.425243
18793.844413,-1071.984525,-593.420005,-9686.145885
18793.846960,-1244.267752,497.707101,-10030.712339
18793.849507,-555.134843,842.273555,-10241.280728
18793.852054,-1186.840010,727.418070,-10145.567824
18793.854601,918.843878,-1646.261949,-9456.434915
18793.857148,-2833.101958,382.851616,-10030.712339
18793.859695,1244.267752,-650.847747,-9781.858789
18793.862242,-3924.229064,-1052.841944,-9513.862658
18793.864789,2890.529701,5838.487144,-11581.261384
18793.867336,2775.674216,-5532.205851,-7867.600709
18793.869883,-1110.269686,2488.535504,-7523.034254
18793.872430,2182.254211,9035.298138,-12748.958813
18793.874977,-2813.959378,-3120.240670,-8767.302006
18793.877524,-727.418070,-1799.402595,-9667.003304
18793.880071,2967.100024,5915.057467,-11925.827838
18793.882618,-0.000000,-4996.213589,-8116.454259
18793.885165,-1263.410333,765.703232,-10126.425243
18793.887712,765.703232,4153.940034,-11121.839445
18793.890258,-306.281293,-1837.687757,-8863.014910
18793.892805,1512.263883,133.998066,-9724.431046
18793.895310,478.564520,1703.689691,-10624.132344
18793.897821,-382.851616,-153.140646,-9896.714274
18793.900333,708.275490,-1684.547110,-8882.157491
18793.902845,784.845813,-995.414202,-9513.862658
18793.905357,-153.140646,612.562586,-10394.421374
18793.907869,153.140646,1091.127106,-10260.423309
18793.910381,918.843878,-325.423874,-9456.434915
18793.912893,1646.261949,1416.550979,-9973.284597
18793.915405,-191.425808,612.562586,-9954.142016
18793.917917,-995.414202,-650.847747,-9667.003304
18793.920429,1435.693560,1397.408398,-10068.997501
18793.922941,784.845813,-1531.406464,-9341.579430
18793.925452,287.138712,708.275490,-10068.997501
18793.927964,-1186.840010,1531.406464,-10222.138147
18793.930476,1933.400661,-535.992262,-9513.862658
18793.932988,-2143.969050,937.986459,-10222.138147
18793.935500,-248.853550,5168.496816,-11581.261384
18793.938012,3081.955509,-3445.664544,-8805.587168
18793.940524,-5570.491013,-1091.127106,-9609.575562
18793.943036,306.281293,8537.591037,-13074.382686
18793.945548,-2909.672282,-9399.007173,-7044.469734
18793.948060,1741.974853,1129.412267,-10222.138147
18793.950572,306.281293,3196.810994,-11140.982026
18793.953084,-3005.385186,-4287.938099,-8518.448456
18793.955595,727.418070,3943.371645,-11236.694930
18793.958107,-19.142581,803.988394,-10068.997501
18793.960619,-1531.406464,-1875.972918,-9245.866526
18793.963131,-765.703232,1148.554848,-10298.708470
18793.965643,-689.132909,287.138712,-10222.138147
18793.968155,-1703.689691,-995.414202,-9571.290400
18793.970667,-153.140646,57.427742,-9839.286531
18793.973179,-689.132909,669.990328,-9992.427178
18793.975691,-1205.982590,593.420005,-10183.852986
18793.978203,287.138712,-95.712904,-9877.571693
18793.980715,-114.855485,-133.998066,-9820.143950
18793.983226,-1493.121302,153.140646,-9877.571693
18793.985738,-2048.256146,344.566454,-10068.997501
18793.988250,-497.707101,-1569.691626,-9609.575562
18793.990762,440.279358,-267.996131,-9877.571693
18793.993274,191.425808,612.562586,-10049.854920
18793.995796,-1684.547110,-1014.556782,-9705.288466
18793.998318,-1684.547110,1033.699363,-10183.852986
18794.000841,-2086.541307,1186.840010,-10394.421374
18794.003363,650.847747,-38.285162,-9781.858789
18794.005885,287.138712,-2316.252277,-9245.866526
18794.008407,-344.566454,2067.398726,-10547.562021
18794.010929,-2182.254211,-2163.111630,-9437.292334
18794.013451,-3445.664544,2258.824534,-10604.989763
18794.015974,4804.787781,880.558717,-10260.423309
18794.018496,-2201.396792,-4766.502619,-8212.167163
18794.021018,1512.263883,8901.300072,-12729.816232
18794.023540,-57.427742,-2967.100024,-8709.874264
18794.026062,191.425808,-1435.693560,-9322.436850
18794.028584,382.851616,5245.067139,-11562.118803
18794.031107,1493.121302,-1550.549045,-9188.438784
18794.033629,363.709035,-4651.647134,-8212.167163
18794.036151,2105.683888,5455.635528,-11676.974288
18794.038673,497.707101,-1129.412267,-9475.577496
18794.041195,-612.562586,-1167.697429,-9245.866526
18794.043717,19.142581,3885.943902,-10872.985894
18794.046240,-765.703232,267.996131,-10241.280728
18794.048762,344.566454,-1684.547110,-9494.720077
18794.051284,1359.123237,631.705166,-9858.429112
18794.053806,-306.281293,842.273555,-9781.858789
18794.056328,-631.705166,-937.986459,-9494.720077
18794.058850,325.423874,765.703232,-10336.993632
18794.061372,1435.693560,1435.693560,-10068.997501
18794.063895,746.560651,631.705166,-9820.143950
18794.066417,-287.138712,95.712904,-9781.858789
18794.068939,382.851616,478.564520,-9896.714274
18794.071461,-1875.972918,1646.261949,-10394.421374
18794.073983,708.275490,-210.568389,-10030.712339
18794.076505,1282.552914,-1416.550979,-9379.864592
18794.079028,497.707101,153.140646,-9762.716208
18794.081550,1148.554848,2469.392923,-10183.852986
18794.084072,995.414202,-3503.092286,-8671.589102
18794.086594,-1837.687757,4383.651003,-11370.692995
18794.089116,4517.649069,133.998066,-9820.143950
18794.091638,-784.845813,-7101.897477,-6987.041992
18794.094161,-2316.252277,1741.974853,-10509.276859
18794.096691,1186.840010,5168.496816,-11772.687192
18794.099220,-2909.672282,-7848.458128,-7503.891674
18794.101750,2852.244539,3828.516160,-11389.835576
18794.104280,-880.558717,727.418070,-9820.143950
18794.106810,-3445.664544,-2392.822600,-8843.872330
18794.109340,76.570323,2986.242605,-10796.415571
18794.111870,1244.267752,-574.277424,-9954.142016
18794.114400,-133.998066,-1205.982590,-9609.575562
18794.116930,-1416.550979,-689.132909,-9858.429112
18794.119460,-2526.820666,1263.410333,-10528.419440
18794.121990,-401.994197,-172.283227,-9781.858789
18794.124520,880.558717,-1397.408398,-9341.579430
18794.127050,1512.263883,-153.140646,-9820.143950
18794.129580,-1110.269686,650.847747,-10088.140082
18794.132110,-1627.119368,478.564520,-9973.284597
18794.134639,-2182.254211,-574.277424,-9934.999435
18794.137169,-248.853550,-19.142581,-10145.567824
18794.139699,421.136778,-1110.269686,-9724.431046
18794.142229,-382.851616,-650.847747,-9609.575562
18794.144759,-689.132909,842.273555,-10145.567824
18794.147289,-937.986459,631.705166,-10011.569758
18794.149819,-2488.535504,229.710970,-10030.712339
18794.152349,1607.976787,325.423874,-9915.856854
18794.154879,-823.130974,-2335.394858,-9169.296203
18794.157409,-1512.263883,1186.840010,-10222.138147
18794.159939,-574.277424,-918.843878,-10049.854920
18794.162469,-4785.645200,746.560651,-10068.997501
18794.164999,4211.367776,2641.676150,-10624.132344
18794.167529,-669.990328,-5398.207786,-8020.741355
18794.170058,306.281293,7676.174901,-12212.966550
18794.172588,-19.142581,267.996131,-9781.858789
18794.175118,-1014.556782,-3885.943902,-8327.022648
18794.177648,478.564520,6757.331022,-12136.396227
18794.180178,-1263.410333,-5206.781978,-8154.739421
18794.182708,574.277424,-1416.550979,-9552.147819
18794.185238,3541.377448,4957.928427,-11447.263318
18794.187768,382.851616,478.564520,-9877.571693
18794.190298,-861.416136,-1780.260014,-9054.440718
18794.192828,325.423874,3196.810994,-10719.845248
18794.195358,-421.136778,995.414202,-10413.563955
18794.197895,287.138712,-1282.552914,-9571.290400
18794.200432,1856.830338,-937.986459,-9284.151688
18794.202969,-421.136778,937.986459,-9896.714274
18794.205505,-899.701298,727.418070,-10241.280728
18794.208042,497.707101,38.285162,-9973.284597
18794.210579,1512.263883,861.416136,-9973.284597
18794.213116,995.414202,880.558717,-9896.714274
18794.215653,-133.998066,-325.423874,-9667.003304
18794.218190,363.709035,1703.689691,-10088.140082
18794.220727,555.134843,248.853550,-10030.712339
18794.223264,957.129040,-1703.689691,-9169.296203
18794.225801,-306.281293,995.414202,-10279.565890
18794.228338,2373.680019,1091.127106,-10011.569758
18794.230875,-1473.978722,-2469.392923,-8997.012976
18794.233412,401.994197,5876.772306,-11581.261384
18794.235949,2009.970984,-3924.229064,-8556.733618
18794.238486,-5991.627790,210.568389,-10279.565890
18794.241023,976.271621,7293.323285,-12672.388490
18794.243559,-2890.529701,-9973.284597,-6833.901346
18794.246096,2584.248408,2239.681954,-10547.562021
18794.248633,-1454.836141,2411.965181,-10834.700733
18794.251170,-3215.953574,-2469.392923,-9016.155557
18794.253707,-2048.256146,1129.412267,-10183.852986
18794.256244,784.845813,2431.107762,-10643.274925
18794.258781,-574.277424,-2105.683888,-9399.007173
18794.261318,-363.709035,-478.564520,-9781.858789
18794.263855,-2067.398726,803.988394,-10298.708470
18794.266392,-842.273555,421.136778,-10279.565890
18794.268929,-612.562586,-1761.117434,-9265.009107
18794.271466,114.855485,497.707101,-9839.286531
18794.274003,-1531.406464,1397.408398,-10432.706536
18794.276540,-191.425808,-172.283227,-9992.427178
18794.279082,-440.279358,-95.712904,-9801.001370
18794.281624,-1014.556782,-421.136778,-9724.431046
18794.284167,-803.988394,114.855485,-10049.854920
18794.286709,-191.425808,-689.132909,-9877.571693
18794.289252,-1339.980656,-765.703232,-9877.571693
18794.291794,1282.552914,708.275490,-9954.142016
18794.294337,-1263.410333,-248.853550,-9552.147819
18794.296879,-1493.121302,-344.566454,-10011.569758
18794.299421,-2143.969050,2756.531635,-10930.413637
18794.301964,1397.408398,-1952.543242,-9513.862658
18794.304506,-1780.260014,-248.853550,-9686.145885
18794.307049,1550.549045,-344.566454,-9858.429112
18794.309591,-4728.217458,-995.414202,-9379.864592
18794.312134,2947.957443,4919.643266,-11600.403965
18794.314676,2335.394858,-4843.072942,-9609.575562
18794.317218,-555.134843,-4823.930362,-7925.028451
18794.319761,2411.965181,8518.448456,-12500.105262
18794.322303,-2813.959378,-3598.805190,-8441.878133
18794.324846,-1225.125171,-76.570323,-10317.851051
18794.327388,3866.801322,4287.938099,-11523.833642
18794.329931,-76.570323,-5761.916821,-7752.745224
18794.332473,-191.425808,2641.676150,-10624.132344
18794.335015,-95.712904,2641.676150,-10604.989763
18794.337558,-287.138712,-1588.834206,-9131.011042
18794.340100,899.701298,1339.980656,-10126.425243
18794.342643,-133.998066,1186.840010,-10547.562021
18794.345185,-133.998066,-325.423874,-9896.714274
18794.347728,38.285162,-823.130974,-9322.436850
18794.350270,899.701298,-38.285162,-9954.142016
18794.352813,555.134843,1531.406464,-10279.565890
18794.355355,229.710970,-382.851616,-9590.432981
18794.357897,133.998066,535.992262,-9762.716208
18794.360440,1320.838075,1512.263883,-10145.567824
18794.362982,593.420005,210.568389,-9915.856854
18794.365525,76.570323,-1359.123237,-9341.579430
18794.368067,-191.425808,1244.267752,-10183.852986
18794.370610,-1282.552914,1550.549045,-10470.991698
18794.373152,3024.527766,-1493.121302,-9590.432981
18794.375694,-1875.972918,765.703232,-9954.142016
18794.378237,1627.119368,4345.365842,-11523.833642
18794.380783,2182.254211,-2833.101958,-9016.155557
18794.383330,-6297.909083,-1225.125171,-9647.860723
18794.385876,593.420005,8288.737486,-13112.667848
18794.388423,-2469.392923,-9513.862658,-6948.756830
18794.390969,2220.539373,746.560651,-9992.427178
18794.393516,-803.988394,3483.949706,-11332.407834
18794.396063,-3637.090352,-3924.229064,-8690.731683
18794.398609,1071.984525,3330.809059,-10892.128475
18794.401156,287.138712,631.705166,-10011.569758
18794.403702,-2048.256146,-1129.412267,-9590.432981
18794.406249,-880.558717,-306.281293,-9954.142016
18794.408795,210.568389,708.275490,-10107.282662
18794.411342,-669.990328,363.709035,-10241.280728
18794.413888,-1646.261949,-1550.549045,-9399.007173
18794.416435,-114.855485,1320.838075,-10164.710405
18794.418981,-555.134843,555.134843,-9877.571693
18794.421528,-727.418070,-1071.984525,-9705.288466
18794.424074,172.283227,669.990328,-10145.567824
18794.426621,-823.130974,-1186.840010,-9475.577496
18794.429167,-1493.121302,650.847747,-10145.567824
18794.431714,-191.425808,-229.710970,-10049.854920
18794.434260,-1186.840010,-1378.265818,-9609.575562
18794.436807,287.138712,1397.408398,-10202.995566
18794.439354,-2182.254211,-76.570323,-9724.431046
18794.441900,-0.000000,-976.271621,-10145.567824
18794.444447,-382.851616,-2220.539373,-9207.581365
18794.446993,57.427742,1971.685822,-10451.849117
18794.449540,-2258.824534,-1110.269686,-9896.714274
18794.452086,-2603.390989,2143.969050,-10528.419440
18794.454633,4843.072942,-1148.554848,-9437.292334
18794.457179,-3024.527766,-3081.955509,-8863.014910
18794.459726,2143.969050,8173.882002,-12519.247843
18794.462272,-248.853550,-5072.783912,-8097.311678
18794.464819,1799.402595,1129.412267,-9934.999435
18794.467365,1110.269686,5245.067139,-11428.120738
18794.469912,-3962.514226,-6049.055533,-7944.171032
18794.472458,708.275490,3809.373579,-11255.837510
18794.475005,2871.387120,4689.932296,-11428.120738
18794.477551,-153.140646,-2220.539373,-9035.298138
18794.480098,-19.142581,689.132909,-9915.856854
18794.482648,-535.992262,2622.533570,-10356.136213
18794.485198,-478.564520,-114.855485,-9934.999435
18794.487749,1531.406464,-689.132909,-9724.431046
18794.490299,1531.406464,-823.130974,-9513.862658
18794.492849,-459.421939,1454.836141,-10164.710405
18794.495399,382.851616,-401.994197,-9820.143950
18794.497949,-210.568389,57.427742,-9839.286531
18794.500500,1033.699363,1780.260014,-10241.280728
18794.503050,1148.554848,-57.427742,-9590.432981
18794.505600,191.425808,803.988394,-9915.856854
18794.508150,-497.707101,1091.127106,-10298.708470
18794.510700,842.273555,-899.701298,-9437.292334
18794.513251,-440.279358,-497.707101,-9552.147819
18794.515801,2986.242605,1722.832272,-10279.565890
18794.518351,-823.130974,-2794.816797,-9092.725880
18794.520901,210.568389,4651.647134,-11026.126541
18794.523451,2737.389054,-2067.398726,-8939.585234
18794.526002,-6833.901346,-172.283227,-10126.425243
18794.528552,-57.427742,7389.036189,-12844.671717
18794.531102,-2201.396792,-9437.292334,-7044.469734
18794.533652,2565.105827,1129.412267,-10145.567824
18794.536202,-1167.697429,3005.385186,-11026.126541
18794.538753,-3866.801322,-2029.113565,-9169.296203
18794.541303,-2163.111630,937.986459,-10068.997501
18794.543853,765.703232,2335.394858,-10566.704602
18794.546403,-708.275490,-1646.261949,-9552.147819
18794.548954,-535.992262,-708.275490,-9762.716208
18794.551504,-516.849682,-306.281293,-9762.716208
18794.554054,-631.705166,459.421939,-10202.995566
18794.556604,-1531.406464,-478.564520,-9801.001370
18794.559154,-1512.263883,861.416136,-10088.140082
18794.561705,-363.709035,516.849682,-9954.142016
18794.564255,-95.712904,-1052.841944,-9552.147819
18794.566805,-535.992262,1052.841944,-10241.280728
18794.569355,-516.849682,-708.275490,-9992.427178
18794.571905,-1780.260014,-842.273555,-9801.001370
18794.574456,-1397.408398,210.568389,-10241.280728
18794.577006,191.425808,382.851616,-10011.569758
18794.579556,-784.845813,-1263.410333,-9418.149754
18794.582106,1531.406464,-689.132909,-9628.718142
18794.584659,-2086.541307,1684.547110,-10336.993632
18794.587212,459.421939,-133.998066,-9934.999435
18794.589764,-3349.951640,-1512.263883,-9475.577496
18794.592317,3962.514226,1397.408398,-10490.134278
18794.594870,-708.275490,-3809.373579,-8480.163294
18794.597423,-38.285162,4862.215523,-11428.120738
18794.599975,4134.797453,-1167.697429,-9533.005238
18794.602528,-1110.269686,-7063.612315,-7006.184573
18794.605081,3043.670347,5589.633594,-11236.694930
18794.607634,-287.138712,1416.550979,-10030.712339
18794.610186,-2909.672282,-3847.658741,-8882.157491
18794.612739,3062.812928,4938.785846,-11734.402030
18794.615292,784.845813,-3177.668413,-8671.589102
18794.617845,-899.701298,-172.283227,-9686.145885
18794.620397,-344.566454,3139.383251,-10834.700733
18794.622950,-267.996131,363.709035,-9705.288466
18794.625503,1282.552914,76.570323,-9724.431046
18794.628056,823.130974,57.427742,-9973.284597
18794.630608,-842.273555,344.566454,-10107.282662
18794.633161,-650.847747,-38.285162,-9781.858789
18794.635714,287.138712,76.570323,-10011.569758
18794.638267,-38.285162,1110.269686,-10202.995566
18794.640819,803.988394,478.564520,-9877.571693
18794.643372,2201.396792,440.279358,-9609.575562
18794.645925,-1722.832272,1282.552914,-10107.282662
18794.648478,-1225.125171,1895.115499,-10624.132344
18794.651030,574.277424,-1646.261949,-9322.436850
18794.653583,382.851616,-918.843878,-9513.862658
18794.656136,2182.254211,2526.820666,-10451.849117
18794.658689,401.994197,-4249.652938,-8575.876198
18794.661241,-497.707101,4230.510357,-10987.841379
18794.663794,4039.084549,382.851616,-9571.290400
18794.666347,-2354.537438,-7867.600709,-7101.897477
18794.668900,-2239.681954,3292.523898,-11389.835576
18794.671452,899.701298,1627.119368,-10796.415571
18794.674005,-555.134843,-6661.618118,-7657.032320
18794.676558,2967.100024,3828.516160,-11332.407834
18794.679111,-3062.812928,-248.853550,-9609.575562
18794.681663,-3426.521963,133.998066,-9705.288466
18794.684216,746.560651,1665.404530,-10394.421374
18794.686770,-57.427742,-1014.556782,-9743.573627
18794.689325,191.425808,-325.423874,-9820.143950
18794.691879,-1454.836141,-1454.836141,-9475.577496
18794.694433,-976.271621,1895.115499,-10604.989763
18794.696988,-172.283227,-1244.267752,-10336.993632
18794.699542,-880.558717,-2986.242605,-8786.444587
18794.702097,-38.285162,3235.096155,-10758.130410
18794.704651,287.138712,-957.129040,-9475.577496
18794.707205,-1301.695494,-1971.685822,-9284.151688
18794.709760,-210.568389,2182.254211,-10777.272990
18794.712314,-2335.394858,-1225.125171,-9743.573627
18794.714868,-497.707101,-1052.841944,-9686.145885
18794.717423,210.568389,1531.406464,-10394.421374
18794.719977,-1493.121302,-1244.267752,-9686.145885
18794.722531,-1205.982590,1818.545176,-10375.278794
18794.725086,114.855485,95.712904,-9896.714274
18794.727640,-2565.105827,631.705166,-10145.567824
18794.730194,3158.525832,-1225.125171,-9418.149754
18794.732749,-2507.678085,-1818.545176,-9360.722011
18794.735303,1186.840010,6259.623922,-11983.255581
18794.737857,2660.818731,-5111.069074,-8173.882002
18794.740412,-1014.556782,689.132909,-9686.145885
18794.742966,-0.000000,8250.452325,-12519.247843
18794.745520,-3158.525832,-6221.338760,-7599.604578
18794.748075,1780.260014,2928.814862,-10834.700733
18794.750629,3560.520029,421.136778,-9915.856854
18794.753184,-1263.410333,-4536.791650,-8307.880067
18794.755738,1148.554848,4307.080680,-11428.120738
18794.758292,-287.138712,287.138712,-10030.712339
18794.760847,-114.855485,-306.281293,-9494.720077
18794.763401,1397.408398,363.709035,-9686.145885
18794.765955,-38.285162,478.564520,-10107.282662
18794.768510,-497.707101,899.701298,-10279.565890
18794.771064,95.712904,-899.701298,-9571.290400
18794.773618,344.566454,976.271621,-10030.712339
18794.776173,-727.418070,689.132909,-10222.138147
18794.778727,-19.142581,535.992262,-9915.856854
18794.781281,2699.103893,861.416136,-9647.860723
18794.783836,-401.994197,-38.285162,-9628.718142
18794.786390,-1091.127106,1875.972918,-10643.274925
18794.788946,-593.420005,-191.425808,-9801.001370
18794.791502,1091.127106,-2297.109696,-9322.436850
18794.794058,-459.421939,1895.115499,-10604.989763
18794.796614,3369.094221,574.277424,-10011.569758
18794.799170,-3847.658741,-2488.535504,-8767.302006
18794.801726,-210.568389,7235.895542,-11983.255581
18794.804282,172.283227,-6087.340694,-7925.028451
18794.806838,-2622.533570,-1493.121302,-9609.575562
18794.809394,2182.254211,5608.776174,-12040.683323
18794.811951,-2775.674216,-6661.618118,-7618.747158
18794.814507,1952.543242,1875.972918,-10758.130410
18794.817063,-1014.556782,1493.121302,-10030.712339
18794.819619,-4077.369710,-1339.980656,-9111.868461
18794.822175,325.423874,2048.256146,-10547.562021
18794.824731,937.986459,-976.271621,-9839.286531
18794.827287,306.281293,-95.712904,-10011.569758
18794.829843,-842.273555,-1607.976787,-9303.294269
18794.832399,-2201.396792,842.273555,-10183.852986
18794.834955,-114.855485,631.705166,-10279.565890
18794.837511,-363.709035,-1033.699363,-9590.432981
18794.840067,689.132909,823.130974,-9934.999435
18794.842623,-669.990328,-459.421939,-9762.716208
18794.845179,-1301.695494,57.427742,-9954.142016
18794.847735,-1359.123237,-248.853550,-9915.856854
18794.850291,-861.416136,-1263.410333,-9647.860723
18794.852847,-363.709035,1091.127106,-10336.993632
18794.855403,-2086.541307,210.568389,-10202.995566
18794.857959,-593.420005,1952.543242,-10451.849117
18794.860515,-440.279358,-1646.261949,-9226.723946
18794.863072,-1225.125171,1914.258080,-10413.563955
18794.865628,-1665.404530,-995.414202,-10107.282662
18794.868184,-3943.371645,1167.697429,-10356.136213
18794.870740,5532.205851,401.994197,-10068.997501
18794.873296,-1856.830338,-4326.223261,-8480.163294
18794.875852,842.273555,7771.887805,-12308.679454
18794.878408,-1148.554848,-1914.258080,-8977.870395
18794.880964,669.990328,-1014.556782,-9303.294269
18794.883520,1761.117434,5857.629725,-11791.829773
18794.886076,-3503.092286,-5053.641331,-8154.739421
18794.888632,114.855485,1971.685822,-10681.560086
18794.891190,2258.824534,4498.506488,-11542.976222
18794.893747,-478.564520,-1741.974853,-9303.294269
18794.896304,210.568389,1033.699363,-10049.854920
18794.898861,229.710970,1722.832272,-10107.282662
18794.901418,-823.130974,-267.996131,-9781.858789
18794.903975,1186.840010,957.129040,-10202.995566
18794.906531,1493.121302,-1761.117434,-9111.868461
18794.909088,-497.707101,995.414202,-10164.710405
18794.911645,-114.855485,1129.412267,-10336.993632
18794.914202,210.568389,-229.710970,-9647.860723
18794.916759,1971.685822,1646.261949,-9877.571693
18794.919316,803.988394,-267.996131,-9513.862658
18794.921873,-38.285162,133.998066,-9379.864592
18794.924430,-1856.830338,1339.980656,-10413.563955
18794.926987,1856.830338,555.134843,-10241.280728
18794.929544,-2392.822600,-995.414202,-9686.145885
18794.932101,3349.951640,3139.383251,-10700.702667
18794.934658,-2239.681954,-3943.371645,-8212.167163
18794.937215,-4498.506488,6661.618118,-11944.970419
18794.939772,2067.398726,-1052.841944,-9628.718142
18794.942329,-3043.670347,-6757.331022,-7848.458128
18794.944886,2679.961312,7197.610381,-12691.531070
18794.947443,-4077.369710,-4287.938099,-8614.161360
18794.950000,-516.849682,-1416.550979,-9667.003304
18794.952557,1359.123237,3732.803256,-10796.415571
18794.955114,-76.570323,-19.142581,-9724.431046
18794.957671,-2143.969050,-440.279358,-9781.858789
18794.960228,-287.138712,-574.277424,-9820.143950
18794.962785,-325.423874,363.709035,-10183.852986
18794.965342,-133.998066,-976.271621,-9533.005238
18794.967899,-995.414202,-765.703232,-9571.290400
18794.970456,-1378.265818,1416.550979,-10585.847182
18794.973013,-153.140646,478.564520,-10030.712339
18794.975570,708.275490,-1780.260014,-9226.723946
18794.978127,-689.132909,459.421939,-9992.427178
18794.980684,-1665.404530,918.843878,-10336.993632
18794.983241,-1914.258080,-2048.256146,-9475.577496
18794.985797,-0.000000,344.566454,-9552.147819
18794.988354,-1129.412267,1627.119368,-10470.991698
18794.990911,1837.687757,-957.129040,-9590.432981
18794.993469,-842.273555,-2507.678085,-8805.587168
18794.996026,1301.695494,3962.514226,-10987.841379
18794.998583,-4402.793584,-1148.554848,-9743.573627
18795.001141,2603.390989,114.855485,-10030.712339
18795.003698,3005.385186,-3196.810994,-8805.587168
18795.006255,-3024.527766,3005.385186,-10853.843314
18795.008812,3905.086483,1282.552914,-10030.712339
18795.011370,-210.568389,-6719.045861,-7140.182638
18795.013927,2871.387120,8863.014910,-12212.966550
18795.016484,-1646.261949,-1320.838075,-9188.438784
18795.019042,-4613.361973,-6029.912952,-7886.743290
18795.021599,1837.687757,3962.514226,-11198.409768
18795.024156,2488.535504,-535.992262,-9590.432981
18795.026713,-803.988394,-2354.537438,-9092.725880
18795.029271,344.566454,2775.674216,-10528.419440
18795.031828,-248.853550,1225.125171,-9992.427178
18795.034385,976.271621,-114.855485,-9781.858789
18795.036943,880.558717,-593.420005,-9781.858789
18795.039500,-344.566454,574.277424,-9915.856854
18795.042057,-287.138712,459.421939,-9973.284597
18795.044614,784.845813,-497.707101,-9705.288466
18795.047172,1282.552914,1148.554848,-10222.138147
18795.049729,746.560651,1550.549045,-10183.852986
18795.052286,-363.709035,593.420005,-9877.571693
18795.054844,555.134843,-1225.125171,-9322.436850
18795.057401,-1282.552914,1473.978722,-10490.134278
18795.059958,1990.828403,669.990328,-10260.423309
18795.062516,-2679.961312,-2163.111630,-9360.722011
18795.065073,2105.683888,4613.361973,-11236.694930
18795.067630,-631.705166,-3771.088418,-8384.450390
18795.070187,-5302.494882,3905.086483,-11179.267187
18795.072745,1799.402595,3043.670347,-10968.698798
18795.075302,-3483.949706,-8059.026517,-7255.038123
18795.077859,2277.967115,5474.778109,-11983.255581
18795.080417,-3809.373579,-1588.834206,-9571.290400
18795.082974,-3694.518094,-3598.805190,-8805.587168
18795.085531,1091.127106,2641.676150,-10662.417506
18795.088088,382.851616,842.273555,-10049.854920
18795.090646,-2431.107762,-421.136778,-9858.429112
18795.093203,-861.416136,-746.560651,-9781.858789
18795.095760,-153.140646,-133.998066,-9915.856854
18795.098317,114.855485,-133.998066,-9858.429112
18795.100875,-1263.410333,-1052.841944,-9456.434915
18795.103432,-976.271621,1167.697429,-10432.706536
18795.105989,-191.425808,842.273555,-10202.995566
18795.108546,-0.000000,-1416.550979,-9284.151688
18795.111103,-1148.554848,153.140646,-10011.569758
18795.113660,-1607.976787,133.998066,-10088.140082
18795.116218,-899.701298,-229.710970,-10011.569758
18795.118775,-440.279358,-995.414202,-9647.860723
18795.121332,-133.998066,-727.418070,-9801.001370
18795.123889,-1607.976787,2775.674216,-10681.560086
18795.126446,-210.568389,-516.849682,-9647.860723
18795.129004,-2124.826469,95.712904,-9858.429112
18795.131561,1550.549045,-210.568389,-10068.997501
18795.134118,-3885.943902,-861.416136,-9590.432981
18795.136675,3292.523898,3541.377448,-11313.265253
18795.139232,765.703232,-5053.641331,-8288.737486
18795.141789,-593.420005,5168.496816,-11562.118803
18795.144347,-516.849682,3541.377448,-10777.272990
18795.146904,-2545.963246,-4153.940034,-8193.024582
18795.149461,1129.412267,1071.984525,-10413.563955
18795.152018,3330.809059,1397.408398,-10356.136213
18795.154575,-1244.267752,-3694.518094,-8575.876198
18795.157133,535.992262,3139.383251,-11006.983960
18795.159690,38.285162,344.566454,-9973.284597
18795.162247,287.138712,478.564520,-9781.858789
18795.164804,574.277424,440.279358,-9686.145885
18795.167361,-1205.982590,669.990328,-10164.710405
18795.169918,114.855485,1875.972918,-10700.702667
18795.172476,1186.840010,-2086.541307,-8977.870395
18795.175033,325.423874,382.851616,-9839.286531
18795.177590,574.277424,2086.541307,-10585.847182
18795.180147,-1263.410333,1339.980656,-10202.995566
18795.182704,-861.416136,440.279358,-9934.999435
18795.185261,2048.256146,0.000000,-9667.003304
18795.187819,-765.703232,344.566454,-10030.712339
18795.190376,1531.406464,440.279358,-10202.995566
18795.192933,-2967.100024,-861.416136,-9705.288466
18795.195490,1856.830338,3751.945837,-10911.271056
18795.198048,-325.423874,-3713.660675,-8307.880067
18795.200606,-5474.778109,4728.217458,-11581.261384
18795.203163,1205.982590,2163.111630,-10643.274925
18795.205721,-2833.101958,-7829.315547,-7159.325219
18795.208278,2507.678085,5761.916821,-12059.825904
18795.210836,-1033.699363,-1722.832272,-11255.837510
18795.213394,-3771.088418,-3771.088418,-8824.729749
18795.215951,1110.269686,2584.248408,-10719.845248
18795.218509,497.707101,1148.554848,-10164.710405
18795.221067,-2258.824534,-650.847747,-9724.431046
18795.223624,-823.130974,-976.271621,-9571.290400
18795.226182,-267.996131,229.710970,-10183.852986
18795.228740,363.709035,-363.709035,-9743.573627
18795.231297,-19.142581,-1856.830338,-9073.583299
18795.233855,-803.988394,861.416136,-10164.710405
18795.236413,-612.562586,1761.117434,-10528.419440
18795.238970,-306.281293,-1263.410333,-9456.434915
18795.241528,-995.414202,-382.851616,-9839.286531
18795.244086,497.707101,-306.281293,-9992.427178
18795.246643,-995.414202,248.853550,-9954.142016
18795.249201,-2277.967115,-937.986459,-9724.431046
18795.251759,2009.970984,516.849682,-9954.142016
18795.254316,-478.564520,-995.414202,-9379.864592
18795.256874,880.558717,1416.550979,-10126.425243
18795.259432,-3866.801322,-593.420005,-9839.286531
18795.261989,1780.260014,1320.838075,-10375.278794
18795.264547,3292.523898,-4211.367776,-8384.450390
18795.267105,-1875.972918,2928.814862,-10700.702667
18795.269662,3732.803256,1493.121302,-10145.567824
18795.272220,-823.130974,-6527.620053,-7197.610381
18795.274778,3349.951640,7944.171032,-10298.708470
18795.277335,459.421939,5302.494882,-11428.120738
18795.279893,-3905.086483,-4823.930362,-8365.307810
18795.282450,1665.404530,2431.107762,-10719.845248
18795.285008,2392.822600,38.285162,-9724.431046
18795.287566,-555.134843,-1684.547110,-9188.438784
18795.290123,153.140646,1493.121302,-10260.423309
18795.292681,229.710970,1569.691626,-10107.282662
18795.295239,880.558717,-38.285162,-9743.573627
18795.297796,421.136778,-325.423874,-9647.860723
18795.300354,-133.998066,746.560651,-10049.854920
18795.302912,267.996131,440.279358,-9762.716208
18795.305469,1397.408398,-401.994197,-9647.860723
18795.308027,-1282.552914,1799.402595,-10375.278794
18795.310584,38.285162,1588.834206,-10336.993632
18795.313142,267.996131,-1148.554848,-9188.438784
18795.315700,-727.418070,1378.265818,-10317.851051
18795.318257,1741.974853,861.416136,-10432.706536
18795.320815,-2699.103893,-1205.982590,-9762.716208
18795.323372,2718.246474,2335.394858,-10470.991698
18795.325930,-2909.672282,-2373.680019,-8939.585234
18795.328488,-3005.385186,5532.205851,-11791.829773
18795.331045,1952.543242,-3388.236802,-8863.014910
18795.333603,-2297.109696,-3349.951640,-8843.872330
18795.336160,1933.400661,6565.905214,-12366.107197
18795.338718,-3943.371645,-5570.491013,-8250.452325
18795.341276,-2450.250342,-4077.369710,-8767.302006
18795.343833,2182.254211,3809.373579,-11026.126541
18795.346391,-229.710970,-535.992262,-9494.720077
18795.348948,-1397.408398,-708.275490,-9647.860723
18795.351506,-76.570323,-57.427742,-10049.854920
18795.354063,-880.558717,765.703232,-10317.851051
18795.356621,-765.703232,-1435.693560,-9437.292334
18795.359179,-1052.841944,-325.423874,-9762.716208
18795.361736,-421.136778,1339.980656,-10394.421374
18795.364294,-401.994197,-344.566454,-9667.003304
18795.366851,-363.709035,-287.138712,-9686.145885
18795.369409,-1799.402595,287.138712,-10107.282662
18795.371967,-57.427742,-95.712904,-10164.710405
18795.374524,-535.992262,-899.701298,-9590.432981
18795.377082,-1818.545176,-918.843878,-9743.573627
18795.379639,-325.423874,3139.383251,-11006.983960
18795.382197,-650.847747,-1952.543242,-9188.438784
18795.384755,-306.281293,1244.267752,-10126.425243
18795.387312,-2603.390989,421.136778,-10375.278794
18795.389870,-2526.820666,1473.978722,-10394.421374
18795.392427,5455.635528,-2545.963246,-8939.585234
18795.394985,-2450.250342,-1588.834206,-9418.149754
18795.397543,2201.396792,6967.899411,-12346.964616
18795.400100,-669.990328,-6029.912952,-7542.176835
18795.402657,-612.562586,2297.109696,-8116.454259
18795.405215,1818.545176,7006.184573,-12059.825904
18795.407772,-2354.537438,-2928.814862,-8843.872330
18795.410329,-535.992262,-1627.119368,-9552.147819
18795.412886,2813.959378,3541.377448,-11102.696864
18795.415444,-248.853550,-1416.550979,-9437.292334
18795.418001,153.140646,76.570323,-9743.573627
18795.420558,-574.277424,1933.400661,-10279.565890
18795.423115,-287.138712,1607.976787,-10490.134278
18795.425673,937.986459,-976.271621,-9552.147819
18795.428230,1110.269686,-1033.699363,-9513.862658
18795.430787,650.847747,1990.828403,-10432.706536
18795.433344,1875.972918,-669.990328,-9456.434915
18795.435902,-497.707101,-1397.408398,-9322.436850
18795.438459,344.566454,1588.834206,-10107.282662
18795.441016,344.566454,2545.963246,-10528.419440
18795.443573,1531.406464,-3311.666478,-8939.585234
18795.446130,1148.554848,1205.982590,-10202.995566
18795.448688,2392.822600,-267.996131,-9743.573627
18795.451245,-4173.082614,-133.998066,-9322.436850
18795.453802,3847.658741,3101.098090,-10566.704602
18795.456359,-2182.254211,-5742.774240,-7905.885870
18795.458917,-1665.404530,4479.363907,-11542.976222
18795.461474,574.277424,-1512.263883,-9705.288466
18795.464031,535.992262,-5398.207786,-8193.024582
18795.466588,1473.978722,5091.926493,-10566.704602
18795.469146,-1397.408398,1799.402595,-10222.138147
18795.471703,-2163.111630,-2067.398726,-8958.727814
18795.474260,-172.283227,1665.404530,-10298.708470
18795.476817,727.418070,669.990328,-10317.851051
18795.479375,-957.129040,-1493.121302,-9456.434915
18795.481932,-1282.552914,-1684.547110,-9437.292334
18795.484489,-1550.549045,2565.105827,-10892.128475
18795.487046,-899.701298,-76.570323,-9877.571693
18795.489604,133.998066,-1799.402595,-9169.296203
18795.492161,-631.705166,1416.550979,-10241.280728
18795.494718,-1722.832272,76.570323,-10126.425243
18795.497275,-574.277424,-1741.974853,-9475.577496
18795.499832,-708.275490,-1454.836141,-9341.579430
18795.502390,-823.130974,535.992262,-10317.851051
18795.504922,-918.843878,2488.535504,-10853.843314
18795.507453,-899.701298,-2392.822600,-9111.868461
18795.509985,-631.705166,2143.969050,-10356.136213
18795.512517,-1799.402595,-172.283227,-10107.282662
18795.515049,-2986.242605,1301.695494,-10317.851051
18795.517581,5053.641331,-1033.699363,-9456.434915
18795.520113,-2507.678085,-2737.389054,-8958.727814
18795.522645,2258.824534,7427.321350,-12289.536874
18795.525176,-727.418070,-4594.219392,-8097.311678
18795.527708,1722.832272,708.275490,-9839.286531
18795.530240,1071.984525,5934.200048,-11734.402030
18795.532772,-1665.404530,-1818.545176,-9150.153622
18795.535304,-708.275490,-2354.537438,-9284.151688
18795.537836,2392.822600,3407.379382,-11140.982026
18795.540367,-38.285162,-708.275490,-9513.862658
18795.542899,-172.283227,-76.570323,-9533.005238
18795.545431,-344.566454,1129.412267,-10088.140082
18795.547963,-535.992262,2067.398726,-10643.274925
18795.550495,995.414202,-191.425808,-9839.286531
18795.553027,1397.408398,-1799.402595,-9111.868461
18795.555559,1052.841944,2143.969050,-10375.278794
18795.558090,-440.279358,421.136778,-9992.427178
18795.560622,-803.988394,19.142581,-9839.286531
18795.563154,1799.402595,1282.552914,-9724.431046
18795.565686,210.568389,516.849682,-10049.854920
18795.568218,2163.111630,669.990328,-10202.995566
18795.570750,-3254.238736,-535.992262,-9877.571693
18795.573282,1550.549045,3120.240670,-10872.985894
18795.575813,-1359.123237,-3254.238736,-8614.161360
18795.578345,-4517.649069,4766.502619,-11581.261384
18795.580877,1301.695494,191.425808,-10202.995566
18795.583409,-2871.387120,-6297.909083,-7810.172966
18795.585941,2201.396792,6202.196179,-12155.538808
18795.588473,-3713.660675,-2488.535504,-9245.866526
18795.591005,-1052.841944,-2718.246474,-9073.583299
18795.593536,803.988394,3254.238736,-10758.130410
18795.596068,823.130974,1684.547110,-10279.565890
18795.598600,-1607.976787,-1971.685822,-9188.438784
18795.601132,-765.703232,-478.564520,-9915.856854
18795.603664,-631.705166,1588.834206,-10604.989763
18795.606200,-689.132909,-1033.699363,-9533.005238
18795.608735,-76.570323,-1933.400661,-9284.151688
18795.611271,-689.132909,1550.549045,-10490.134278
18795.613807,-1033.699363,842.273555,-10088.140082
18795.616343,-842.273555,-1761.117434,-9341.579430
18795.618878,-803.988394,669.990328,-10298.708470
18795.621414,-650.847747,344.566454,-10222.138147
18795.623950,-3196.810994,-1914.258080,-9475.577496
18795.626486,57.427742,669.990328,-10049.854920
18795.629022,-746.560651,-191.425808,-9858.429112
18795.631557,612.562586,650.847747,-10030.712339
18795.634093,-3579.662610,-650.847747,-9686.145885
18795.636629,-210.568389,3043.670347,-10911.271056
18795.639165,4000.799387,-3847.658741,-8537.591037
18795.641701,-2067.398726,-95.712904,-9858.429112
18795.644236,3905.086483,5149.354235,-11351.550414
18795.646772,-861.416136,-7063.612315,-6910.471669
18795.649308,3177.668413,5015.356170,-11140.982026
18795.651844,-191.425808,2909.672282,-10700.702667
18795.654379,-1607.976787,-4441.078746,-8518.448456
18795.656915,2143.969050,2526.820666,-10758.130410
18795.659451,2507.678085,2469.392923,-10604.989763
18795.661987,114.855485,-1339.980656,-9399.007173
18795.664523,191.425808,-306.281293,-9513.862658
18795.667058,76.570323,2048.256146,-10509.276859
18795.669594,-555.134843,2009.970984,-10528.419440
18795.672130,1071.984525,-1244.267752,-9475.577496
18795.674666,1129.412267,-727.418070,-9494.720077
18795.677202,1990.828403,2258.824534,-10356.136213
18795.679737,-421.136778,-1512.263883,-9341.579430
18795.682273,-1148.554848,1110.269686,-10260.423309
18795.684809,2086.541307,2277.967115,-10432.706536
18795.687345,-823.130974,-1952.543242,-8939.585234
18795.689880,3292.523898,765.703232,-9456.434915
18795.692416,-1416.550979,459.421939,-10088.140082
18795.694952,-516.849682,3311.666478,-10968.698798
18795.697488,1493.121302,-3790.230998,-8652.446522
18795.700024,-5398.207786,2584.248408,-10968.698798
18795.702559,401.994197,4938.785846,-11906.685258
18795.705095,-3120.240670,-9303.294269,-6948.756830
18795.707634,2201.396792,3656.232933,-11274.980091
18795.710173,-2928.814862,2641.676150,-10643.274925
18795.712712,-2450.250342,-5264.209720,-8250.452325
18795.715251,1378.265818,2871.387120,-10700.702667
18795.717790,1225.125171,1397.408398,-10202.995566
18795.720328,-1627.119368,-2909.672282,-8997.012976
18795.722867,-1550.549045,-2679.961312,-9016.155557
18795.725406,-229.710970,1799.402595,-10796.415571
18795.727945,-1282.552914,1493.121302,-10394.421374
18795.730484,57.427742,-2450.250342,-9111.868461
18795.733023,-248.853550,-555.134843,-9705.288466
18795.735562,-1378.265818,2239.681954,-10566.704602
18795.738101,-803.988394,-1722.832272,-9169.296203
18795.740639,-459.421939,-861.416136,-9858.429112
18795.743178,-593.420005,1818.545176,-10738.987829
18795.745717,-1435.693560,-2852.244539,-9073.583299
18795.748256,-1397.408398,1129.412267,-10183.852986
18795.750795,-344.566454,2297.109696,-10738.987829
18795.753334,-1684.547110,-746.560651,-10317.851051
18795.755873,2737.389054,-2756.531635,-8939.585234
18795.758412,-2163.111630,516.849682,-9877.571693
18795.760951,1014.556782,5513.063270,-11830.114934
18795.763489,1512.263883,-6604.190376,-7752.745224
18795.766028,382.851616,3483.949706,-10911.271056
18795.768567,-631.705166,6738.188442,-11830.114934
18795.771106,-3043.670347,-6489.334891,-7331.608446
18795.773645,2679.961312,3522.234867,-10872.985894
18795.776184,-153.140646,1531.406464,-10260.423309
18795.778723,-440.279358,-4115.654872,-8671.589102
18795.781262,1091.127106,2220.539373,-10624.132344
18795.783801,401.994197,2526.820666,-10738.987829
18795.786339,-497.707101,1225.125171,-10068.997501
18795.788878,-133.998066,-1531.406464,-9226.723946
18795.791417,669.990328,1014.556782,-10183.852986
18795.793956,650.847747,2009.970984,-10509.276859
18795.796495,1512.263883,-1550.549045,-9111.868461
18795.799034,-842.273555,880.558717,-10107.282662
18795.801573,-2067.398726,3885.943902,-11198.409768
18795.804112,-114.855485,-1091.127106,-9475.577496
18795.806650,-459.421939,-229.710970,-9724.431046
18795.809168,2105.683888,3158.525832,-11045.269122
18795.811686,-2871.387120,-267.996131,-9762.716208
18795.814204,2584.248408,-574.277424,-9552.147819
18795.816721,-2852.244539,248.853550,-9801.001370
18795.819239,-5474.778109,5493.920690,-11983.255581
18795.821757,421.136778,-191.425808,-10183.852986
18795.824275,-2143.969050,-7312.465866,-7197.610381
18795.826792,1550.549045,6929.614250,-12500.105262
18795.829310,-3388.236802,-2029.113565,-9322.436850
18795.831828,-1129.412267,-4115.654872,-8480.163294
18795.834346,899.701298,4823.930362,-11389.835576
18795.836863,-153.140646,-1167.697429,-9226.723946
18795.839381,-1454.836141,-2201.396792,-9150.153622
18795.841899,172.283227,2756.531635,-11236.694930
18795.844416,-1071.984525,-172.283227,-9992.427178
18795.846934,-1263.410333,-2871.387120,-8786.444587
18795.849452,-401.994197,-1301.695494,-9437.292334
18795.851970,-803.988394,2354.537438,-10853.843314
18795.854487,-1167.697429,-727.418070,-9609.575562
18795.857005,-76.570323,-1339.980656,-9379.864592
18795.859523,-1014.556782,1761.117434,-10681.560086
18795.862041,-2641.676150,-382.851616,-10145.567824
18795.864558,210.568389,-2603.390989,-9131.011042
18795.867076,-880.558717,1607.976787,-10222.138147
18795.869594,-153.140646,1856.830338,-10604.989763
18795.872111,-2775.674216,-1780.260014,-9341.579430
18795.874629,3158.525832,-478.564520,-9590.432981
18795.877147,-3005.385186,555.134843,-10049.854920
18795.879665,976.271621,4019.941968,-11428.120738
18795.882182,3483.949706,-1990.828403,-9245.866526
18795.884700,-38.285162,-3311.666478,-8480.163294
18795.887218,1952.543242,8116.454259,-12366.107197
18795.889736,-2277.967115,-3158.525832,-8614.161360
18795.892253,1320.838075,-1339.980656,-9609.575562
18795.894771,1569.691626,3943.371645,-11294.122672
18795.897289,210.568389,-3503.092286,-8709.874264
18795.899806,-669.990328,153.140646,-9801.001370
18795.902324,325.423874,3885.943902,-11160.124606
18795.904842,-114.855485,-133.998066,-9628.718142
18795.907360,669.990328,-2086.541307,-9092.725880
18795.909878,248.853550,2526.820666,-10681.560086
18795.912402,1186.840010,2852.244539,-10624.132344
18795.914927,-593.420005,-1110.269686,-9475.577496
18795.917451,76.570323,440.279358,-10088.140082
18795.919975,-344.566454,2182.254211,-10509.276859
18795.922499,-114.855485,76.570323,-9762.716208
18795.925023,1320.838075,-1378.265818,-9303.294269
18795.927547,2871.387120,1282.552914,-10145.567824
18795.930071,937.986459,-1473.978722,-9303.294269
18795.932595,-2488.535504,2507.678085,-10528.419440
18795.935119,3215.953574,210.568389,-9839.286531
18795.937643,-4804.787781,-3541.377448,-8652.446522
18795.940167,-172.283227,6240.481341,-12232.109131
18795.942691,-1818.545176,-5723.631659,-8250.452325
18795.945215,-248.853550,-6317.051664,-7676.174901
18795.947739,1071.984525,4479.363907,-11638.689126
18795.950264,-3139.383251,1339.980656,-10183.852986
18795.952788,-2660.818731,-2411.965181,-8958.727814
18795.955312,95.712904,3177.668413,-10892.128475
18795.957836,555.134843,-153.140646,-10030.712339
18795.960360,-1397.408398,-3675.375514,-8709.874264
18795.962884,-344.566454,727.418070,-10241.280728
18795.965408,-1225.125171,2297.109696,-10738.987829
18795.967932,-1416.550979,-1818.545176,-9418.149754
18795.970456,-727.418070,-440.279358,-9934.999435
18795.972980,-421.136778,1473.978722,-10222.138147
18795.975504,-727.418070,-1263.410333,-9820.143950
18795.978028,-2124.826469,-1454.836141,-9647.860723
18795.980552,287.138712,-746.560651,-9839.286531
18795.983077,-1588.834206,1205.982590,-10222.138147
18795.985601,344.566454,191.425808,-10030.712339
18795.988125,-2182.254211,-287.138712,-9781.858789
18795.990649,1607.976787,-861.416136,-9609.575562
18795.993173,-4192.225195,1588.834206,-10088.140082
18795.995697,3254.238736,3139.383251,-10911.271056
18795.998221,172.283227,-5340.780043,-8269.594906
18796.000745,306.281293,6144.768437,-11772.687192
18796.003269,-1014.556782,2641.676150,-10470.991698
18796.005793,-1339.980656,-5130.211654,-7791.030386
18796.008317,1895.115499,765.703232,-10336.993632
18796.010846,1205.982590,2986.242605,-10911.271056
18796.013376,-344.566454,-4115.654872,-8537.591037
18796.015905,-440.279358,1646.261949,-10451.849117
18796.018434,899.701298,3503.092286,-10987.841379
18796.020963,-937.986459,-1014.556782,-9399.007173
18796.023492,306.281293,-689.132909,-9571.290400
18796.026021,535.992262,2316.252277,-10604.989763
18796.028550,1397.408398,-191.425808,-9609.575562
18796.031080,-440.279358,-95.712904,-9647.860723
18796.033609,-153.140646,2565.105827,-10758.130410
18796.036138,-803.988394,-1052.841944,-9571.290400
18796.038667,516.849682,727.418070,-9571.290400
18796.041196,1741.974853,1014.556782,-10164.710405
18796.043725,-76.570323,1110.269686,-10183.852986
18796.046254,2469.392923,-1799.402595,-9284.151688
18796.048784,-3273.381317,1646.261949,-10145.567824
18796.051313,1914.258080,2813.959378,-10719.845248
18796.053842,-2105.683888,-7657.032320,-7408.178770
18796.056371,-842.273555,4479.363907,-11676.974288
18796.058900,-267.996131,191.425808,-10375.278794
18796.061429,210.568389,-6833.901346,-7637.889739
18796.063958,1320.838075,5647.061336,-11868.400096
18796.066488,-3464.807125,574.277424,-10068.997501
18796.069017,-2182.254211,-2411.965181,-8977.870395
18796.071546,-593.420005,344.566454,-9992.427178
18796.074075,1416.550979,1780.260014,-10834.700733
18796.076604,-1263.410333,-2526.820666,-9207.581365
18796.079133,-1033.699363,-1282.552914,-9303.294269
18796.081662,-899.701298,2029.113565,-10509.276859
18796.084192,-1454.836141,-57.427742,-10030.712339
18796.086721,-363.709035,-1856.830338,-9399.007173
18796.089250,191.425808,823.130974,-9992.427178
18796.091779,-172.283227,191.425808,-9934.999435
18796.094308,-3062.812928,-957.129040,-9839.286531
18796.096837,1225.125171,-708.275490,-9781.858789
18796.099366,-765.703232,-937.986459,-9379.864592
18796.101896,1320.838075,861.416136,-10068.997501
18796.104425,-3598.805190,-325.423874,-9954.142016
18796.106954,191.425808,1780.260014,-10298.708470
18796.109483,3943.371645,-3445.664544,-8365.307810
18796.112017,-1761.117434,2067.398726,-10432.706536
18796.114551,3924.229064,2603.390989,-10662.417506
18796.117085,-248.853550,-7006.184573,-6987.041992
18796.119619,3196.810994,6278.766502,-11504.691061
18796.122153,-880.558717,1684.547110,-10145.567824
18796.124687,-516.849682,-4230.510357,-8633.303941
18796.127221,1263.410333,3158.525832,-11140.982026
18796.129755,1359.123237,-535.992262,-9552.147819
18796.132289,-823.130974,-2565.105827,-8901.300072
18796.134823,-535.992262,1014.556782,-9973.284597
18796.137356,1148.554848,3215.953574,-11006.983960
18796.139890,325.423874,-1282.552914,-9265.009107
18796.142424,1052.841944,-229.710970,-9667.003304
18796.144958,-248.853550,3120.240670,-10700.702667
18796.147492,-421.136778,-727.418070,-9609.575562
18796.150026,727.418070,-1320.838075,-9284.151688
18796.152560,1531.406464,2565.105827,-10470.991698
18796.155094,-363.709035,-995.414202,-9533.005238
18796.157628,3215.953574,-325.423874,-9437.292334
18796.160162,-421.136778,612.562586,-9954.142016
18796.162696,-401.994197,3483.949706,-10853.843314
18796.165230,1263.410333,-4211.367776,-8537.591037
18796.167764,-3981.656806,-5015.356170,-7886.743290
18796.170298,-803.988394,7963.313613,-12825.529136
18796.172832,-2316.252277,-5781.059402,-8365.307810
18796.175366,1646.261949,-4000.799387,-8499.305875
18796.177900,708.275490,7140.182638,-12346.964616
18796.180434,-3292.523898,-3043.670347,-8977.870395
18796.182968,-555.134843,-1071.984525,-9475.577496
18796.185502,1454.836141,3943.371645,-11045.269122
18796.188035,-1397.408398,-1895.115499,-9207.581365
18796.190569,-2009.970984,-2163.111630,-9379.864592
18796.193103,-842.273555,2718.246474,-11274.980091
18796.195637,-535.992262,995.414202,-10164.710405
18796.198171,-1569.691626,-2928.814862,-9399.007173
18796.200705,-1493.121302,-1435.693560,-9705.288466
18796.203239,-612.562586,3043.670347,-10911.271056
18796.205773,-689.132909,-1167.697429,-9456.434915
18796.208307,-2622.533570,-1588.834206,-9609.575562
18796.210841,306.281293,2947.957443,-10949.556218
18796.213379,-1665.404530,-2297.109696,-9150.153622
18796.215917,1397.408398,-1167.697429,-9475.577496
18796.218455,-3292.523898,2105.683888,-10758.130410
18796.220992,2086.541307,95.712904,-9724.431046
18796.223530,2182.254211,-5187.639397,-7733.602643
18796.226068,-555.134843,6604.190376,-11964.113000
18796.228606,3311.666478,-669.990328,-9552.147819
18796.231144,-727.418070,-7944.171032,-7063.612315
18796.233681,3637.090352,2852.244539,-10624.132344
18796.236219,-363.709035,5819.344563,-11619.546546
18796.238757,-2507.678085,-5245.067139,-8135.596840
18796.241295,612.562586,1473.978722,-10585.847182
18796.243833,3081.955509,1703.689691,-10317.851051
18796.246371,-287.138712,-4287.938099,-8173.882002
18796.248908,57.427742,2545.963246,-10451.849117
18796.251446,1225.125171,3464.807125,-11026.126541
18796.253984,1225.125171,-2718.246474,-8920.442653
18796.256522,1225.125171,382.851616,-9858.429112
18796.259060,-535.992262,2794.816797,-10528.419440
18796.261598,-1378.265818,-842.273555,-10126.425243
18796.264135,1129.412267,-1167.697429,-9494.720077
18796.266673,612.562586,1091.127106,-10279.565890
18796.269211,1148.554848,1493.121302,-10509.276859
18796.271749,-995.414202,516.849682,-9647.860723
18796.274287,2718.246474,-1454.836141,-9265.009107
18796.276825,-3598.805190,2737.389054,-10604.989763
18796.279362,2794.816797,1397.408398,-10317.851051
18796.281900,-1799.402595,-8269.594906,-7101.897477
18796.284438,-1282.552914,5761.916821,-12098.111066
18796.286976,-1091.127106,-325.423874,-10164.710405
18796.289514,401.994197,-7561.319416,-7389.036189
18796.292052,1607.976787,7063.612315,-12346.964616
18796.294589,-1091.127106,5111.069074,-11542.976222
18796.297127,-3254.238736,-3388.236802,-8575.876198
18796.299665,-440.279358,708.275490,-10088.140082
18796.302203,1454.836141,1971.685822,-10796.415571
18796.304741,-1607.976787,-2909.672282,-9226.723946
18796.307279,-1550.549045,-708.275490,-9609.575562
18796.309816,-1397.408398,2718.246474,-10892.128475
18796.312354,-957.129040,-957.129040,-9628.718142
18796.314895,-535.992262,-2258.824534,-9399.007173
18796.317436,-478.564520,2297.109696,-10700.702667
18796.319977,-1186.840010,-191.425808,-9896.714274
18796.322518,-306.281293,-3158.525832,-8977.870395
18796.325058,-1722.832272,2297.109696,-10604.989763
18796.327599,535.992262,2431.107762,-10738.987829
18796.330140,-3388.236802,-516.849682,-9915.856854
18796.332681,3522.234867,-2316.252277,-9073.583299
18796.335222,-1359.123237,1167.697429,-10049.854920
18796.337762,842.273555,4651.647134,-11351.550414
18796.340303,1493.121302,-5647.061336,-8020.741355
18796.342844,-76.570323,4058.227130,-11160.124606
18796.345385,-555.134843,6010.770371,-11696.116869
18796.347926,-2526.820666,-6699.903280,-7274.180704
18796.350467,2545.963246,3560.520029,-10796.415571
18796.353007,-133.998066,1761.117434,-10336.993632
18796.355548,-1684.547110,-4230.510357,-8690.731683
18796.358089,-2201.396792,440.279358,-10011.569758
18796.360630,1665.404530,4383.651003,-11351.550414
18796.363171,1320.838075,-2354.537438,-8767.302006
18796.365712,-325.423874,-1244.267752,-9437.292334
18796.368252,1359.123237,4689.932296,-11313.265253
18796.370793,363.709035,-2545.963246,-8920.442653
18796.373334,478.564520,0.000000,-9609.575562
18796.375875,612.562586,3005.385186,-10719.845248
18796.378416,-1339.980656,-803.988394,-9820.143950
18796.380957,2009.970984,-746.560651,-9571.290400
18796.383497,2852.244539,2105.683888,-10030.712339
18796.386038,210.568389,-2163.111630,-8997.012976
18796.388579,-2048.256146,3101.098090,-10777.272990
18796.391120,1780.260014,3445.664544,-11083.554283
18796.393661,-1110.269686,-6853.043926,-7829.315547
18796.396202,-1569.691626,2067.398726,-10719.845248
18796.398742,-210.568389,1359.123237,-10604.989763
18796.401283,-38.285162,-6049.055533,-8020.741355
18796.403824,1263.410333,4268.795518,-11428.120738
18796.406365,-2565.105827,1397.408398,-10279.565890
18796.408906,-2392.822600,-1952.543242,-9016.155557
18796.411446,210.568389,2220.539373,-10470.991698
18796.413987,248.853550,210.568389,-9954.142016
18796.416531,-899.701298,-3235.096155,-8977.870395
18796.419075,-421.136778,-440.279358,-9877.571693
18796.421619,-1359.123237,2660.818731,-10585.847182
18796.424162,-918.843878,478.564520,-10145.567824
18796.426706,-114.855485,-2526.820666,-9265.009107
18796.429250,516.849682,937.986459,-10241.280728
18796.431794,-2411.965181,210.568389,-10145.567824
18796.434337,689.132909,-1512.263883,-9322.436850
18796.436881,-382.851616,-1761.117434,-9265.009107
18796.439425,746.560651,1646.261949,-10451.849117
18796.441969,-3330.809059,229.710970,-10011.569758
18796.444513,3196.810994,-2488.535504,-9016.155557
18796.447056,-535.992262,76.570323,-9686.145885
18796.449600,669.990328,6029.912952,-11734.402030
18796.452144,1627.119368,-5340.780043,-8078.169098
18796.454688,-325.423874,-5934.200048,-7637.889739
18796.457231,2641.676150,8269.594906,-12346.964616
18796.459775,-1339.980656,-1052.841944,-9341.579430
18796.462319,1033.699363,-3771.088418,-8614.161360
18796.464863,2450.250342,4019.941968,-11217.552349
18796.467406,191.425808,-2029.113565,-9245.866526
18796.469950,-2469.392923,-650.847747,-9667.003304
18796.472494,1550.549045,3790.230998,-11026.126541
18796.475038,1416.550979,-708.275490,-9341.579430
18796.477582,957.129040,-1550.549045,-9322.436850
18796.480125,-497.707101,3445.664544,-10968.698798
18796.482669,-516.849682,765.703232,-10011.569758
18796.485213,555.134843,-1761.117434,-9494.720077
18796.487757,3311.666478,-401.994197,-9571.290400
18796.490300,-497.707101,1091.127106,-10317.851051
18796.492844,1014.556782,612.562586,-10068.997501
18796.495388,-2526.820666,957.129040,-10088.140082
18796.497932,2584.248408,2392.822600,-10356.136213
18796.500475,-1856.830338,-3215.953574,-8824.729749
18796.503019,-4134.797453,4536.791650,-11696.116869
18796.505563,727.418070,-1205.982590,-9839.286531
18796.508107,-3005.385186,-5704.489078,-8212.167163
18796.510651,1339.980656,6049.055533,-12136.396227
18796.513194,-1914.258080,-3388.236802,-8824.729749
18796.515738,-1014.556782,-2392.822600,-9188.438784
18796.518284,899.701298,2756.531635,-10643.274925
18796.520830,153.140646,1990.828403,-10375.278794
18796.523376,-2009.970984,-2526.820666,-8997.012976
18796.525922,-1263.410333,631.705166,-10547.562021
18796.528468,344.566454,1301.695494,-10604.989763
18796.531014,-803.988394,-3139.383251,-8614.161360
18796.533560,-2411.965181,1129.412267,-10241.280728
18796.536106,-574.277424,2450.250342,-11102.696864
18796.538652,-95.712904,-3522.234867,-8863.014910
18796.541198,363.709035,-114.855485,-9762.716208
18796.543745,-995.414202,114.855485,-10088.140082
18796.546291,-2297.109696,-210.568389,-9973.284597
18796.548837,-287.138712,248.853550,-10049.854920
18796.551383,-1186.840010,842.273555,-10241.280728
18796.553929,1914.258080,-2048.256146,-9245.866526
18796.556475,-2699.103893,574.277424,-9877.571693
18796.559021,2565.105827,4498.506488,-11351.550414
18796.561567,363.709035,-5225.924558,-8059.026517
18796.564113,727.418070,5647.061336,-11715.259450
18796.566659,-669.990328,3560.520029,-10853.843314
18796.569205,-2431.107762,-5302.494882,-7905.885870
18796.571751,2220.539373,4421.936165,-11217.552349
18796.574297,-708.275490,76.570323,-9724.431046
18796.576843,-1416.550979,-2239.681954,-9265.009107
18796.579389,1263.410333,2545.963246,-10968.698798
18796.581935,650.847747,2469.392923,-10585.847182
18796.584481,1129.412267,-976.271621,-9284.151688
18796.587027,-325.423874,-727.418070,-9533.005238
18796.589573,382.851616,3349.951640,-11064.411702
18796.592119,-57.427742,-133.998066,-9705.288466
18796.594665,1244.267752,-1186.840010,-9150.153622
18796.597211,1512.263883,1780.260014,-10202.995566
18796.599757,-2009.970984,-19.142581,-10126.425243
18796.602303,1665.404530,708.275490,-10279.565890
18796.604849,-784.845813,2067.398726,-10375.278794
18796.607395,2737.389054,248.853550,-9743.573627
18796.609941,-3139.383251,-2163.111630,-9035.298138
18796.612487,-1895.115499,5742.774240,-11830.114934
18796.615034,401.994197,1914.258080,-10968.698798
18796.617580,-3407.379382,-7714.460062,-7159.325219
18796.620127,1665.404530,5283.352301,-11849.257515
18796.622675,-1933.400661,-574.277424,-9533.005238
18796.625222,-1473.978722,-4536.791650,-8384.450390
18796.627770,574.277424,4517.649069,-11274.980091
18796.630317,-995.414202,267.996131,-9820.143950
18796.632865,-1933.400661,-1895.115499,-9226.723946
18796.635413,937.986459,1244.267752,-10547.562021
18796.637960,-612.562586,-765.703232,-9992.427178
18796.640508,-1703.689691,-1263.410333,-9226.723946
18796.643055,-1703.689691,1244.267752,-10241.280728
18796.645603,-1225.125171,1205.982590,-10643.274925
18796.648151,-401.994197,-287.138712,-9858.429112
18796.650698,-1454.836141,-1205.982590,-9628.718142
18796.653246,1052.841944,-440.279358,-9781.858789
18796.655793,-1129.412267,-727.418070,-9628.718142
18796.658341,153.140646,133.998066,-9954.142016
18796.660888,-2986.242605,650.847747,-10164.710405
18796.663436,2909.672282,-1607.976787,-9360.722011
18796.665984,-1531.406464,-669.990328,-9494.720077
18796.668531,1952.543242,5647.061336,-11638.689126
18796.671079,1473.978722,-5455.635528,-7925.028451
18796.673626,-114.855485,3043.670347,-10547.562021
18796.676174,-306.281293,6833.901346,-12098.111066
18796.678721,-1378.265818,-2354.537438,-9092.725880
18796.681269,1780.260014,-3043.670347,-8901.300072
18796.683817,3426.521963,3426.521963,-10911.271056
18796.686364,-1282.552914,-1684.547110,-9418.149754
18796.688912,-1933.400661,478.564520,-10088.140082
18796.691459,459.421939,2947.957443,-10853.843314
18796.694007,2258.824534,95.712904,-9667.003304
18796.696555,-459.421939,-1684.547110,-9399.007173
18796.699102,-95.712904,3101.098090,-10892.128475
18796.701650,-325.423874,803.988394,-9915.856854
18796.704197,937.986459,-1493.121302,-9111.868461
18796.706745,1225.125171,2029.113565,-10279.565890
18796.709292,287.138712,803.988394,-10279.565890
18796.711840,823.130974,421.136778,-9781.858789
18796.714388,1607.976787,-1550.549045,-9054.440718
18796.716935,-2048.256146,3330.809059,-10796.415571
18796.719483,3273.381317,-401.994197,-9647.860723
18796.722032,-4096.512291,-5245.067139,-7867.600709
18796.724581,-976.271621,7101.897477,-12672.388490
18796.727130,-2450.250342,-4709.074877,-8403.592971
18796.729680,1033.699363,-4326.223261,-8480.163294
18796.732229,1110.269686,7082.754896,-12251.251712
18796.734778,-2679.961312,-3081.955509,-8920.442653
18796.737327,-631.705166,-1167.697429,-9399.007173
18796.739877,1205.982590,3656.232933,-10930.413637
18796.742426,344.566454,784.845813,-10317.851051
18796.744975,-861.416136,-3522.234867,-8939.585234
18796.747524,-1473.978722,191.425808,-10049.854920
18796.750074,-210.568389,3158.525832,-10834.700733
18796.752623,-918.843878,-2833.101958,-8786.444587
18796.755172,-727.418070,-1110.269686,-9628.718142
18796.757721,-1627.119368,2699.103893,-10892.128475
18796.760271,38.285162,-3158.525832,-9054.440718
18796.762820,-325.423874,-401.994197,-9686.145885
18796.765369,-1148.554848,2316.252277,-10758.130410
18796.767918,-2373.680019,-306.281293,-9896.714274
18796.770468,-1167.697429,-2392.822600,-9322.436850
18796.773017,-2392.822600,5800.201982,-10432.706536
18796.775566,3330.809059,4900.500685,-11830.114934
18796.778115,-248.853550,-7216.752962,-7389.036189
18796.780665,1167.697429,6642.475538,-11925.827838
18796.783214,-1378.265818,4383.651003,-11121.839445
18796.785763,-2392.822600,-6412.764568,-7408.178770
18796.788312,2469.392923,4862.215523,-11351.550414
18796.790862,-880.558717,803.988394,-10030.712339
18796.793411,-1091.127106,-2565.105827,-9169.296203
18796.795960,1129.412267,1416.550979,-10490.134278
18796.798509,1052.841944,1339.980656,-10068.997501
18796.801059,-95.712904,-1531.406464,-8997.012976
18796.803609,-1071.984525,1033.699363,-10317.851051
18796.806160,440.279358,3866.801322,-11294.122672
18796.808710,516.849682,421.136778,-9858.429112
18796.811261,1110.269686,-2182.254211,-8709.874264
18796.813811,382.851616,3388.236802,-10796.415571
18796.816362,-574.277424,-593.420005,-10049.854920
18796.818912,2986.242605,-593.420005,-9284.151688
18796.821463,1435.693560,-478.564520,-9418.149754
18796.824014,-1722.832272,3905.086483,-11045.269122
18796.826564,2488.535504,-3196.810994,-8805.587168
18796.829115,-5015.356170,-803.988394,-9839.286531
18796.831665,133.998066,6987.041992,-12634.103328
18796.834216,-3464.807125,-8882.157491,-7350.751027
18796.836766,861.416136,191.425808,-7484.749093
18796.839317,1454.836141,7752.745224,-12576.675586
18796.841867,-2871.387120,-1186.840010,-9494.720077
18796.844418,-1952.543242,-2813.959378,-8843.872330
18796.846968,1339.980656,3828.516160,-11006.983960
18796.849519,-842.273555,-861.416136,-9494.720077
18796.852070,-918.843878,-3675.375514,-8824.729749
18796.854620,-210.568389,1818.545176,-10681.560086
18796.857171,-248.853550,1780.260014,-10451.849117
18796.859721,-1493.121302,-3024.527766,-8786.444587
18796.862272,-823.130974,363.709035,-10126.425243
18796.864822,-2029.113565,1971.685822,-10681.560086
18796.867373,1167.697429,-3579.662610,-8729.016845
18796.869923,76.570323,-3732.803256,-8499.305875
18796.872474,995.414202,1684.547110,-10470.991698
18796.875024,-3962.514226,2124.826469,-10662.417506
18796.877575,1990.828403,-3962.514226,-8480.163294
18796.880125,-1052.841944,746.560651,-9973.284597
18796.882676,2277.967115,6431.907149,-12480.962682
18796.885227,918.843878,-7101.897477,-7369.893608
18796.887777,287.138712,4000.799387,-10930.413637
18796.890328,-612.562586,7197.610381,-12232.109131
18796.892878,-3081.955509,-7216.752962,-7331.608446
18796.895429,2737.389054,2813.959378,-10662.417506
18796.897979,114.855485,2469.392923,-10643.274925
18796.900530,-1588.834206,-2737.389054,-9705.288466
18796.903080,-2603.390989,-306.281293,-9896.714274
18796.905633,1627.119368,2335.394858,-10566.704602
18796.908184,2699.103893,-727.418070,-9341.579430
18796.910735,-459.421939,-1473.978722,-9245.866526
18796.913286,-267.996131,3330.809059,-10987.841379
18796.915838,287.138712,1167.697429,-10049.854920
18796.918389,2316.252277,-1818.545176,-8824.729749
18796.920940,-976.271621,1914.258080,-10375.278794
18796.923491,-823.130974,2009.970984,-10738.987829
18796.926042,-555.134843,440.279358,-9954.142016
18796.928594,4441.078746,-1071.984525,-9322.436850
18796.931145,-3407.379382,1033.699363,-10049.854920
18796.933696,-3235.096155,5283.352301,-11638.689126
18796.936247,-478.564520,-4670.789715,-8346.165229
18796.938799,-2526.820666,-2699.103893,-9322.436850
18796.941350,1493.121302,6604.190376,-12480.962682
18796.943901,-1167.697429,-6642.475538,-7771.887805
18796.946452,-995.414202,516.849682,-10145.567824
18796.949004,-1378.265818,5781.059402,-11887.542677
18796.951555,-3426.521963,-3732.803256,-8556.733618
18796.954106,210.568389,287.138712,-9915.856854
18796.956657,1550.549045,1856.830338,-10681.560086
18796.959208,-1167.697429,-2622.533570,-9073.583299
18796.961760,-1416.550979,-1014.556782,-9475.577496
18796.964311,-1263.410333,2737.389054,-10796.415571
18796.966862,-1148.554848,1741.974853,-10662.417506
18796.969413,-1205.982590,-2335.394858,-9265.009107
18796.971965,593.420005,-1531.406464,-9494.720077
18796.974516,-1493.121302,2086.541307,-10719.845248
18796.977067,-2009.970984,-38.285162,-10088.140082
18796.979618,-823.130974,-918.843878,-9513.862658
18796.982169,-2545.963246,401.994197,-10126.425243
18796.984721,-2124.826469,4230.510357,-11294.122672
18796.987272,4613.361973,-4517.649069,-8154.739421
18796.989823,-880.558717,-516.849682,-9494.720077
18796.992374,3483.949706,7235.895542,-12519.247843
18796.994926,-1167.697429,-6604.190376,-7159.325219
18796.997477,-1454.836141,-4728.217458,-8288.737486
18797.000028,1397.408398,6795.616184,-12193.823970
18797.002579,-1550.549045,-1148.554848,-9418.149754
18797.005131,593.420005,-2679.961312,-9035.298138
18797.007683,2220.539373,2182.254211,-10585.847182
18797.010235,-880.558717,1071.984525,-10030.712339
18797.012787,-191.425808,-1052.841944,-9265.009107
18797.015339,421.136778,-497.707101,-9743.573627
18797.017891,1646.261949,3081.955509,-10987.841379
18797.020443,478.564520,-823.130974,-9341.579430
18797.022995,995.414202,-803.988394,-9322.436850
18797.025547,-612.562586,3809.373579,-10911.271056
18797.028099,401.994197,95.712904,-10892.128475
18797.030651,-1531.406464,-229.710970,-9724.431046
18797.033203,3407.379382,-1205.982590,-9303.294269
18797.035755,-2507.678085,1493.121302,-10279.565890
18797.038307,-267.996131,2852.244539,-10719.845248
18797.040859,-957.129040,-7695.317482,-7369.893608
18797.043411,-1703.689691,3005.385186,-11160.124606
18797.045963,57.427742,2565.105827,-11140.982026
18797.048516,-114.855485,-8173.882002,-6891.329088
18797.051068,1052.841944,5091.926493,-11562.118803
18797.053620,-2297.109696,2565.105827,-10815.558152
18797.056172,-3579.662610,-4077.369710,-8422.735552
18797.058724,880.558717,2316.252277,-10624.132344
18797.061276,1990.828403,1799.402595,-10700.702667
18797.063828,-172.283227,-1550.549045,-9456.434915
18797.066380,-1799.402595,-2029.113565,-9035.298138
18797.068932,-1741.974853,2890.529701,-10930.413637
18797.071484,-1244.267752,421.136778,-10164.710405
18797.074036,-842.273555,-3139.383251,-9016.155557
18797.076588,440.279358,19.142581,-10030.712339
18797.079140,-1282.552914,1320.838075,-10509.276859
18797.081692,-1244.267752,-1148.554848,-9667.003304
18797.084244,-669.990328,612.562586,-9954.142016
18797.086796,-2813.959378,-114.855485,-10011.569758
18797.089348,-2488.535504,3024.527766,-10815.558152
18797.091901,5111.069074,-2603.390989,-10490.134278
18797.094453,650.847747,-5130.211654,-8097.311678
18797.097005,535.992262,7599.604578,-11925.827838
18797.099557,-1244.267752,1875.972918,-10241.280728
18797.102109,-2335.394858,-5034.498750,-8212.167163
18797.104661,1397.408398,6393.621987,-12040.683323
18797.107213,-669.990328,-1014.556782,-9456.434915
18797.109765,421.136778,-2794.816797,-8977.870395
18797.112318,2258.824534,2335.394858,-10624.132344
18797.114870,-1225.125171,957.129040,-10068.997501
18797.117422,-861.416136,-248.853550,-9667.003304
18797.119975,746.560651,-401.994197,-9762.716208
18797.122527,1933.400661,1818.545176,-10509.276859
18797.125080,1129.412267,1569.691626,-10126.425243
18797.127632,306.281293,-497.707101,-9399.007173
18797.130184,-727.418070,727.418070,-9973.284597
18797.132737,2029.113565,1378.265818,-10298.708470
18797.135289,-1627.119368,153.140646,-9915.856854
18797.137842,2297.109696,1225.125171,-10126.425243
18797.140394,-593.420005,-2450.250342,-9150.153622
18797.142947,-4307.080680,4670.789715,-11581.261384
18797.145499,-229.710970,-1933.400661,-9552.147819
18797.148051,-3560.520029,-4709.074877,-8652.446522
18797.150604,1416.550979,6106.483275,-12423.534939
18797.153156,-669.990328,-4307.080680,-8441.878133
18797.155709,-1186.840010,-2163.111630,-7657.032320
18797.158261,-440.279358,4383.651003,-11274.980091
18797.160813,-1148.554848,1875.972918,-10509.276859
18797.163366,-2813.959378,-2909.672282,-9073.583299
18797.165918,-191.425808,937.986459,-10662.417506
18797.168471,382.851616,2009.970984,-10700.702667
18797.171023,-1014.556782,-2718.246474,-8824.729749
18797.173575,-2297.109696,38.285162,-9858.429112
18797.176128,-2277.967115,2794.816797,-11006.983960
18797.178680,-1971.685822,-2143.969050,-9456.434915
18797.181233,2067.398726,-1148.554848,-9590.432981
18797.183785,19.142581,114.855485,-9954.142016
18797.186337,-880.558717,-727.418070,-9686.145885
18797.188890,-5015.356170,-229.710970,-9762.716208
18797.191442,823.130974,2699.103893,-10662.417506
18797.193995,3713.660675,-3981.656806,-8633.303941
18797.196547,-363.709035,2679.961312,-10662.417506
18797.199099,4441.078746,1454.836141,-9877.571693
18797.201652,-1339.980656,-5283.352301,-7350.751027
18797.204204,1569.691626,7427.321350,-11906.685258
18797.206757,-669.990328,-459.421939,-9762.716208
18797.209309,1646.261949,-4287.938099,-8403.592971
18797.211862,3694.518094,3196.810994,-10681.560086
18797.214415,-765.703232,-440.279358,-9724.431046
18797.216968,-1722.832272,-363.709035,-9571.290400
18797.219521,555.134843,727.418070,-9934.999435
18797.222074,1588.834206,746.560651,-10183.852986
18797.224627,1550.549045,459.421939,-9839.286531
18797.227179,76.570323,-516.849682,-9494.720077
18797.229732,1531.406464,1722.832272,-9992.427178
18797.232285,-650.847747,1416.550979,-10107.282662
18797.234838,133.998066,344.566454,-10049.854920
18797.237391,-1205.982590,1665.404530,-10413.563955
18797.239944,3369.094221,-746.560651,-9628.718142
18797.242497,-2239.681954,-516.849682,-9609.575562
18797.245050,574.277424,3388.236802,-10815.558152
18797.247603,-2029.113565,-6470.192310,-7848.458128
18797.250156,-2277.967115,2354.537438,-10892.128475
18797.252709,1607.976787,5800.201982,-12308.679454
18797.255262,-497.707101,-4938.785846,-8269.594906
18797.257814,-861.416136,-1282.552914,-9513.862658
18797.260367,-1071.984525,5761.916821,-11734.402030
18797.262920,-3924.229064,-2239.681954,-9092.725880
18797.265473,-497.707101,-612.562586,-9724.431046
18797.268026,2239.681954,382.851616,-10317.851051
18797.270579,-1148.554848,-401.994197,-9762.716208
18797.273132,-861.416136,-382.851616,-9647.860723
18797.275685,-1320.838075,38.285162,-10049.854920
18797.278238,-2124.826469,899.701298,-10183.852986
18797.280791,-3062.812928,-842.273555,-9839.286531
18797.283344,1378.265818,-516.849682,-9934.999435
18797.285897,-76.570323,-1186.840010,-9858.429112
18797.288449,784.845813,0.000000,-9858.429112
18797.291002,-4938.785846,612.562586,-10049.854920
18797.293555,229.710970,1416.550979,-10202.995566
18797.296108,3005.385186,-3694.518094,-8729.016845
18797.298661,708.275490,4096.512291,-11255.837510
18797.301214,4479.363907,-784.845813,-9360.722011
18797.303767,-1378.265818,-4211.367776,-7848.458128
18797.306320,1110.269686,8537.591037,-12270.394293
18797.308873,-1837.687757,-2163.111630,-9188.438784
18797.311426,2029.113565,-3369.094221,-8920.442653
18797.313979,3751.945837,3503.092286,-10872.985894
18797.316532,478.564520,1473.978722,-10164.710405
18797.319085,-2316.252277,-306.281293,-9705.288466
18797.321638,325.423874,-363.709035,-9724.431046
18797.324191,1339.980656,1435.693560,-10432.706536
18797.326744,1761.117434,401.994197,-9839.286531
18797.329297,516.849682,-1129.412267,-9207.581365
18797.331850,1627.119368,2316.252277,-10279.565890
18797.334403,-669.990328,1052.841944,-10088.140082
18797.336956,172.283227,0.000000,-9858.429112
18797.339509,-1990.828403,2507.678085,-10719.845248
18797.342062,3292.523898,421.136778,-10068.997501
18797.344615,-1473.978722,-3177.668413,-8805.587168
18797.347168,-1282.552914,5091.926493,-11370.692995
18797.349721,-650.847747,2297.109696,-10892.128475
18797.352274,-4594.219392,-6451.049730,-7982.456194
18797.354827,1244.267752,4709.074877,-11830.114934
18797.357380,287.138712,-1550.549045,-9341.579430
18797.359933,-1493.121302,-4134.797453,-8461.020714
18797.362486,-516.849682,5570.491013,-11581.261384
18797.365039,-3043.670347,-191.425808,-9724.431046
18797.367592,-1665.404530,-1397.408398,-9513.862658
18797.370144,2297.109696,0.000000,-10145.567824
18797.372697,-669.990328,-172.283227,-9992.427178
18797.375250,-1914.258080,210.568389,-9839.286531
18797.377803,-1588.834206,76.570323,-9992.427178
18797.380356,-2258.824534,248.853550,-10126.425243
18797.382909,1033.699363,-1378.265818,-9590.432981
18797.385462,-19.142581,-1225.125171,-9456.434915
18797.388015,-1301.695494,803.988394,-10470.991698
18797.390568,-1110.269686,823.130974,-10298.708470
18797.393121,-2335.394858,-1473.978722,-9341.579430
18797.395674,-3158.525832,4441.078746,-10949.556218
18797.398227,4364.508422,-1646.261949,-9456.434915
18797.400780,-1014.556782,-3254.238736,-8958.727814
18797.403333,5034.498750,7274.180704,-12078.968485
18797.405886,-995.414202,-4211.367776,-7791.030386
18797.408439,-287.138712,957.129040,-9954.142016
18797.410992,248.853550,6183.053598,-12308.679454
18797.413545,-38.285162,-861.416136,-9647.860723
18797.416098,1110.269686,-2909.672282,-8901.300072
18797.418651,2871.387120,1531.406464,-10279.565890
18797.421204,-1799.402595,1397.408398,-10222.138147
18797.423757,-1091.127106,191.425808,-9743.573627
18797.426310,957.129040,-995.414202,-9647.860723
18797.428863,2258.824534,1684.547110,-10298.708470
18797.431415,1531.406464,976.271621,-9839.286531
18797.433968,-497.707101,-516.849682,-9360.722011
18797.436521,-363.709035,2718.246474,-10662.417506
18797.439074,1856.830338,516.849682,-9896.714274
18797.441627,497.707101,-3637.090352,-8595.018779
18797.444180,-133.998066,4249.652938,-9934.999435
18797.446733,2565.105827,4268.795518,-11102.696864
18797.449285,-2833.101958,-7810.172966,-7350.751027
18797.451838,-2431.107762,3847.658741,-11294.122672
18797.454391,-937.986459,1014.556782,-10643.274925
18797.456944,-0.000000,-6910.471669,-7829.315547
18797.459497,2526.820666,5359.922624,-11753.544611
18797.462050,-1263.410333,-248.853550,-9705.288466
18797.464603,-3349.951640,-2603.390989,-8824.729749
18797.467155,57.427742,3235.096155,-10777.272990
18797.469708,-1627.119368,-555.134843,-9973.284597
18797.472261,-440.279358,-1301.695494,-9743.573627
18797.474814,1607.976787,-344.566454,-9724.431046
18797.477367,-937.986459,-57.427742,-9820.143950
18797.479920,-2737.389054,555.134843,-10088.140082
18797.482473,-2201.396792,-1588.834206,-9533.005238
18797.485025,-593.420005,1339.980656,-10528.419440
18797.487578,1014.556782,-401.994197,-10260.423309
18797.490131,918.843878,-2067.398726,-9226.723946
18797.492684,-4594.219392,306.281293,-9801.001370
18797.495237,-976.271621,4019.941968,-11102.696864
18797.497790,3330.809059,-5206.781978,-8135.596840
18797.500343,746.560651,2584.248408,-10604.989763
18797.502895,5398.207786,2143.969050,-10413.563955
18797.505448,-1531.406464,-6144.768437,-6853.043926
18797.508001,1569.691626,7714.460062,-11849.257515
18797.510554,248.853550,6546.762634,-12270.394293
18797.513107,-459.421939,-4977.071008,-8327.022648
18797.515660,3388.236802,-612.562586,-9647.860723
18797.518212,1493.121302,1684.547110,-10222.138147
18797.520765,-2220.539373,497.707101,-9724.431046
18797.523317,823.130974,-880.558717,-9552.147819
18797.525869,1454.836141,133.998066,-9934.999435
18797.528422,1091.127106,2029.113565,-10528.419440
18797.530974,1167.697429,-555.134843,-9513.862658
18797.533527,612.562586,803.988394,-9877.571693
18797.536079,95.712904,2756.531635,-10624.132344
18797.538632,995.414202,-803.988394,-9303.294269
18797.541184,1607.976787,-4670.789715,-8231.309744
18797.543736,-1339.980656,3081.955509,-10930.413637
18797.546289,3483.949706,2258.824534,-10509.276859
18797.548841,-3081.955509,-8518.448456,-6948.756830
18797.551394,-2258.824534,6833.901346,-12308.679454
18797.553946,-2679.961312,-1052.841944,-9973.284597
18797.556499,-95.712904,-6604.190376,-8020.741355
18797.559051,3273.381317,6489.334891,-12193.823970
18797.561603,-1129.412267,-2048.256146,-9016.155557
18797.564156,-2545.963246,-2009.970984,-8920.442653
18797.566708,-287.138712,3771.088418,-10892.128475
18797.569261,-2660.818731,-612.562586,-9954.142016
18797.571813,-325.423874,-1531.406464,-9628.718142
18797.574366,363.709035,-784.845813,-9724.431046
18797.576918,-803.988394,95.712904,-9954.142016
18797.579470,-3062.812928,861.416136,-10164.710405
18797.582023,-1416.550979,-2622.533570,-9150.153622
18797.584575,-1014.556782,1320.838075,-10394.421374
18797.587128,765.703232,803.988394,-10738.987829
18797.589680,-19.142581,-2316.252277,-9131.011042
18797.592233,-3617.947771,-421.136778,-9667.003304
18797.594785,-2545.963246,5953.342629,-11791.829773
18797.597337,3809.373579,-5111.069074,-8212.167163
18797.599890,-440.279358,-19.142581,-9915.856854
18797.602442,5513.063270,5781.059402,-11676.974288
18797.604995,-1263.410333,-1148.554848,-8729.016845
18797.607547,-1397.408398,-2928.814862,-8652.446522
18797.610100,363.709035,7465.606512,-12634.103328
18797.612652,-1033.699363,-2833.101958,-9245.866526
18797.615204,2220.539373,-2143.969050,-9150.153622
18797.617757,2813.959378,1282.552914,-10107.282662
18797.620309,-2354.537438,1607.976787,-10145.567824
18797.622862,-153.140646,-172.283227,-9647.860723
18797.625414,1588.834206,-1205.982590,-9456.434915
18797.627967,2009.970984,1741.974853,-10241.280728
18797.630519,1416.550979,918.843878,-9686.145885
18797.633071,38.285162,-1225.125171,-9322.436850
18797.635624,229.710970,3388.236802,-10892.128475
18797.638176,-1282.552914,4173.082614,-11274.980091
18797.640729,2201.396792,-1914.258080,-9265.009107
18797.643281,-1320.838075,-3292.523898,-8614.161360
18797.645834,-1110.269686,7771.887805,-12423.534939
18797.648386,-612.562586,-6527.620053,-7867.600709
18797.650938,-3311.666478,-2450.250342,-9111.868461
18797.653491,823.130974,7216.752962,-12768.101394
18797.656043,-1359.123237,-6967.899411,-7848.458128
18797.658596,95.712904,842.273555,-10260.423309
18797.661148,-440.279358,5340.780043,-11600.403965
18797.663700,-3962.514226,-3732.803256,-8269.594906
18797.666253,-19.142581,401.994197,-9877.571693
18797.668805,1588.834206,727.418070,-10164.710405
18797.671358,-746.560651,650.847747,-10279.565890
18797.673910,-957.129040,-650.847747,-9628.718142
18797.676463,-1416.550979,-803.988394,-9724.431046
18797.679015,-3483.949706,1301.695494,-10681.560086
18797.681567,574.277424,-555.134843,-9647.860723
18797.684120,555.134843,-3751.945837,-8748.159426
18797.686672,1627.119368,957.129040,-10413.563955
18797.689225,-2833.101958,1665.404530,-10413.563955
18797.691777,1014.556782,-3522.234867,-8518.448456
18797.694330,-2507.678085,1205.982590,-9992.427178
18797.696882,2507.678085,6489.334891,-12117.253646
18797.699434,1665.404530,-7580.461997,-7465.606512
18797.701987,133.998066,-4670.789715,-7791.030386
18797.704539,1627.119368,10011.569758,-12672.388490
18797.707092,-2833.101958,-3196.810994,-8786.444587
18797.709644,1148.554848,-3005.385186,-9092.725880
18797.712197,3177.668413,3790.230998,-11160.124606
18797.714749,-1397.408398,-746.560651,-9877.571693
18797.717301,287.138712,-440.279358,-9628.718142
18797.719854,574.277424,-95.712904,-9609.575562
18797.722406,-1512.263883,2450.250342,-10585.847182
18797.724958,-267.996131,708.275490,-10126.425243
18797.727510,2584.248408,-1167.697429,-9456.434915
18797.730062,1378.265818,3158.525832,-10528.419440
18797.732615,153.140646,516.849682,-9858.429112
18797.735167,-1454.836141,19.142581,-9628.718142
18797.737719,1110.269686,-2201.396792,-9169.296203
18797.740271,-1091.127106,3541.377448,-11255.837510
18797.742823,3541.377448,-248.853550,-9686.145885
18797.745375,-2603.390989,-7350.751027,-7369.893608
18797.747928,-2316.252277,7427.321350,-12538.390424
18797.750480,-2890.529701,-2182.254211,-9456.434915
18797.753032,172.283227,-6317.051664,-8039.883936
18797.755584,2871.387120,7216.752962,-12480.962682
18797.758136,-899.701298,-3120.240670,-8690.731683
18797.760688,-2048.256146,-2220.539373,-8824.729749
18797.763240,-133.998066,4441.078746,-11140.982026
18797.765793,-38.285162,899.701298,-10432.706536
18797.768345,-612.562586,-1301.695494,-9743.573627
18797.770897,708.275490,-1588.834206,-9303.294269
18797.773449,-1129.412267,325.423874,-10088.140082
18797.776001,-3924.229064,1071.984525,-10298.708470
18797.778553,-0.000000,-2297.109696,-9303.294269
18797.781106,153.140646,-727.418070,-9705.288466
18797.783658,1550.549045,612.562586,-10317.851051
18797.786210,-2584.248408,-555.134843,-9762.716208
18797.788762,401.994197,-2143.969050,-9073.583299
18797.791314,-3503.092286,3426.521963,-10662.417506
18797.793866,3464.807125,2718.246474,-10930.413637
18797.796419,-19.142581,-6431.907149,-7771.887805
18797.798971,555.134843,344.566454,-9571.290400
18797.801523,325.423874,8997.012976,-12614.960747
18797.804075,-3139.383251,-6163.911018,-7599.604578
18797.806627,1205.982590,803.988394,-10356.136213
18797.809179,1435.693560,3464.807125,-11102.696864
18797.811731,-1588.834206,-2067.398726,-9341.579430
18797.814284,2124.826469,57.427742,-9858.429112
18797.816836,-191.425808,401.994197,-9839.286531
18797.819388,-2258.824534,2545.963246,-10662.417506
18797.821940,-114.855485,-114.855485,-9801.001370
18797.824492,2718.246474,-401.994197,-9667.003304
18797.827044,1416.550979,3235.096155,-10451.849117
18797.829595,708.275490,2105.683888,-10375.278794
18797.832147,-2947.957443,76.570323,-9762.716208
18797.834699,1818.545176,-133.998066,-10011.569758
18797.837250,-1837.687757,1493.121302,-10528.419440
18797.839802,2584.248408,708.275490,-9992.427178
18797.842354,-1741.974853,-6948.756830,-7465.606512
18797.844906,-2488.535504,5187.639397,-11772.687192
18797.847457,-1952.543242,-344.566454,-10107.282662
18797.850009,-76.570323,-6948.756830,-7810.172966
18797.852561,2526.820666,6604.190376,-12385.249778
18797.855112,-727.418070,-1933.400661,-9092.725880
18797.857664,-2488.535504,-3101.098090,-8556.733618
18797.860216,-0.000000,4326.223261,-11121.839445
18797.862768,306.281293,1359.123237,-10566.704602
18797.865319,-727.418070,-1071.984525,-9839.286531
18797.867871,191.425808,-1875.972918,-9111.868461
18797.870423,-1205.982590,363.709035,-10107.282662
18797.872975,-3215.953574,650.847747,-10317.851051
18797.875526,-593.420005,-1205.982590,-9571.290400
18797.878078,95.712904,-401.994197,-9877.571693
18797.880630,2411.965181,-784.845813,-9781.858789
18797.883181,-3483.949706,-440.279358,-9801.001370
18797.885733,1512.263883,-76.570323,-9513.862658
18797.888285,-880.558717,-1722.832272,-9111.868461
18797.890837,1741.974853,6125.625856,-12040.683323
18797.893388,5340.780043,918.843878,-10011.569758
18797.895940,-344.566454,-5704.489078,-7293.323285
18797.898492,1550.549045,7944.171032,-11983.255581
18797.901043,-708.275490,-497.707101,-9513.862658
18797.903595,880.558717,-4479.363907,-8518.448456
18797.906147,2833.101958,3311.666478,-10892.128475
18797.908699,-1091.127106,-191.425808,-9839.286531
18797.911250,-1071.984525,114.855485,-9724.431046
18797.913802,1550.549045,-421.136778,-9552.147819
18797.916354,-210.568389,1205.982590,-10260.423309
18797.918905,382.851616,1454.836141,-10183.852986
18797.921457,1799.402595,-401.994197,-9379.864592
18797.924009,937.986459,1167.697429,-9915.856854
18797.926561,3024.527766,2316.252277,-10241.280728
18797.929112,-2488.535504,-19.142581,-9762.716208
18797.931664,344.566454,1607.976787,-10490.134278
18797.934215,1416.550979,-3158.525832,-9016.155557
18797.936767,-3694.518094,3962.514226,-11255.837510
18797.939318,229.710970,-689.132909,-9686.145885
18797.941870,-4536.791650,-5149.354235,-8135.596840
18797.944421,306.281293,5934.200048,-12270.394293
18797.946973,-440.279358,-3445.664544,-8843.872330
18797.949524,-1914.258080,-2373.680019,-9226.723946
18797.952076,-133.998066,6374.479406,-12002.398162
18797.954627,-2641.676150,-2737.389054,-8824.729749
18797.957179,-2699.103893,-1339.980656,-8748.159426
18797.959730,899.701298,-497.707101,-9839.286531
18797.962281,-976.271621,1665.404530,-10700.702667
18797.964833,-1895.115499,-287.138712,-9954.142016
18797.967384,-3139.383251,-1186.840010,-9781.858789
18797.969936,306.281293,1473.978722,-10547.562021
18797.972487,-555.134843,-1875.972918,-9169.296203
18797.975039,-1225.125171,-995.414202,-9762.716208
18797.977590,-784.845813,2756.531635,-11064.411702
18797.980142,-1282.552914,-2833.101958,-9092.725880
18797.982693,-3062.812928,2947.957443,-10413.563955
18797.985245,3885.943902,689.132909,-9915.856854
18797.987796,-1933.400661,-3885.943902,-8671.589102
18797.990348,708.275490,4900.500685,-11504.691061
18797.992899,612.562586,4307.080680,-10892.128475
18797.995451,-2852.244539,-5417.350366,-7637.889739
18797.998002,325.423874,4957.928427,-11466.405899
18798.000554,-306.281293,421.136778,-10145.567824
18798.003105,440.279358,-2890.529701,-9111.868461
18798.005657,3177.668413,1378.265818,-10279.565890
18798.008208,-1167.697429,1167.697429,-10183.852986
18798.010760,-2009.970984,1339.980656,-10145.567824
18798.013311,1263.410333,-727.418070,-9590.432981
18798.015863,2986.242605,669.990328,-9877.571693
18798.018414,287.138712,1569.691626,-10049.854920
18798.020966,133.998066,-95.712904,-9801.001370
18798.023517,-3483.949706,1895.115499,-10547.562021
18798.026069,2431.107762,1129.412267,-10279.565890
18798.028620,-1397.408398,-2545.963246,-9226.723946
18798.031171,-803.988394,3885.943902,-11121.839445
18798.033722,-344.566454,-5053.641331,-8346.165229
18798.036272,-2756.531635,-421.136778,-9839.286531
18798.038823,612.562586,3771.088418,-11370.692995
18798.041374,-1320.838075,-6336.194245,-7925.028451
18798.043925,-133.998066,3483.949706,-11351.550414
18798.046476,133.998066,2182.254211,-10528.419440
18798.049027,-2852.244539,-4517.649069,-8001.598774
18798.051578,1071.984525,2335.394858,-10375.278794
18798.054129,1684.547110,-76.570323,-9973.284597
18798.056680,-1818.545176,-172.283227,-10030.712339
18798.059231,-689.132909,133.998066,-10068.997501
18798.061782,-1799.402595,-899.701298,-9781.858789
18798.064333,114.855485,-57.427742,-9877.571693
18798.066884,-918.843878,-1282.552914,-9303.294269
18798.069435,-1473.978722,631.705166,-10317.851051
18798.071986,95.712904,1052.841944,-10528.419440
18798.074537,-1110.269686,-2852.244539,-9169.296203
18798.077088,-2928.814862,4230.510357,-10987.841379
18798.079639,3120.240670,-1110.269686,-9322.436850
18798.082190,-1952.543242,-2584.248408,-9131.011042
18798.084740,5015.356170,7178.467800,-12366.107197
18798.087291,803.988394,2507.678085,-10241.280728
18798.089842,-2622.533570,-4862.215523,-7829.315547
18798.092393,191.425808,6087.340694,-11983.255581
18798.094944,-631.705166,-306.281293,-9896.714274
18798.097495,1378.265818,-3081.955509,-9092.725880
18798.100046,3005.385186,1186.840010,-10126.425243
18798.102597,-1933.400661,1914.258080,-10490.134278
18798.105148,-1397.408398,995.414202,-9992.427178
18798.107699,1952.543242,-1397.408398,-9399.007173
18798.110250,2890.529701,1225.125171,-10049.854920
18798.112801,95.712904,1244.267752,-9992.427178
18798.115352,440.279358,-574.277424,-9571.290400
18798.117903,-3713.660675,1799.402595,-10394.421374
18798.120454,2469.392923,2660.818731,-10834.700733
18798.123005,-1148.554848,-4479.363907,-8346.165229
18798.125556,-2718.246474,4536.791650,-11466.405899
18798.128107,38.285162,-2354.537438,-9360.722011
18798.130657,-3254.238736,-3809.373579,-8671.589102
18798.133208,1282.552914,5072.783912,-11772.687192
18798.135759,-1397.408398,-4843.072942,-8384.450390
18798.138310,-1722.832272,1014.556782,-10451.849117
18798.140860,478.564520,4058.227130,-11160.124606
18798.143411,-2507.678085,-4115.654872,-8173.882002
18798.145962,631.705166,1263.410333,-10164.710405
18798.148513,229.710970,-248.853550,-9992.427178
18798.151063,-1607.976787,-497.707101,-9801.001370
18798.153614,-1454.836141,172.283227,-10126.425243
18798.156165,-1990.828403,-765.703232,-9877.571693
18798.158716,-401.994197,880.558717,-10317.851051
18798.161266,-248.853550,-1301.695494,-9475.577496
18798.163817,76.570323,-1320.838075,-9494.720077
18798.166368,-2086.541307,2143.969050,-10777.272990
18798.168919,1301.695494,-2526.820666,-9207.581365
18798.171469,-3579.662610,19.142581,-9571.290400
18798.174020,3522.234867,5398.207786,-11849.257515
18798.176571,-95.712904,-5761.916821,-8059.026517
18798.179122,1665.404530,5474.778109,-11696.116869
18798.181672,1473.978722,8154.739421,-12423.534939
18798.184223,-2373.680019,-4575.076811,-8097.311678
18798.186774,650.847747,-287.138712,-9973.284597
18798.189325,1435.693560,3273.381317,-11102.696864
18798.191875,-842.273555,-1665.404530,-9552.147819
18798.194426,1493.121302,-650.847747,-9494.720077
18798.196977,210.568389,918.843878,-10011.569758
18798.199528,-2124.826469,2852.244539,-10700.702667
18798.202078,918.843878,-459.421939,-9743.573627
18798.204629,2105.683888,267.996131,-9896.714274
18798.207180,1301.695494,2086.541307,-10164.710405
18798.209731,1225.125171,-803.988394,-9245.866526
18798.212281,-2852.244539,440.279358,-8863.014910
18798.214832,-1416.550979,4613.361973,-11523.833642
18798.217383,4134.797453,-1435.693560,-9590.432981
18798.219934,-4843.072942,-3637.090352,-8614.161360
18798.222484,-421.136778,6948.756830,-12461.820101
18798.225035,-5034.498750,-5513.063270,-8480.163294
18798.227586,-555.134843,-1435.693560,-9724.431046
18798.230137,2928.814862,3790.230998,-11102.696864
18798.232687,-2009.970984,-5417.350366,-8078.169098
18798.235237,-1339.980656,3847.658741,-11026.126541
18798.237788,-459.421939,2239.681954,-10490.134278
18798.240338,-2967.100024,-2277.967115,-9073.583299
18798.242889,803.988394,-133.998066,-10049.854920
18798.245439,650.847747,-612.562586,-9705.288466
18798.247989,-2909.672282,-248.853550,-9877.571693
18798.250540,-842.273555,-516.849682,-9801.001370
18798.253090,-440.279358,-1091.127106,-9628.718142
18798.255640,-1512.263883,1799.402595,-10585.847182
18798.258191,440.279358,-153.140646,-9877.571693
18798.260741,-3177.668413,-2794.816797,-9341.579430
18798.263292,-516.849682,5436.492947,-11638.689126
18798.265842,3254.238736,-3905.086483,-8384.450390
18798.268392,-1761.117434,-937.986459,-9379.864592
18798.270943,5379.065205,6297.909083,-12040.683323
18798.273493,-516.849682,-6125.625856,-7331.608446
18798.276043,1493.121302,4364.508422,-11026.126541
18798.278594,1186.840010,6699.903280,-12212.966550
18798.281144,-842.273555,-2718.246474,-9284.151688
18798.283695,1990.828403,-2297.109696,-9111.868461
18798.286245,1741.974853,1091.127106,-10183.852986
18798.288795,-2009.970984,2258.824534,-10528.419440
18798.291346,574.277424,57.427742,-9724.431046
18798.293896,1971.685822,-1454.836141,-9379.864592
18798.296446,1875.972918,2565.105827,-10413.563955
18798.298997,76.570323,-516.849682,-9456.434915
18798.301547,1225.125171,-535.992262,-9303.294269
18798.304098,-669.990328,4881.358104,-11217.552349
18798.306648,2565.105827,-1320.838075,-9475.577496
18798.309198,-440.279358,-3101.098090,-7733.602643
18798.311749,-3905.086483,4804.787781,-11619.546546
18798.314299,-38.285162,1435.693560,-10547.562021
18798.316849,-3828.516160,-7618.747158,-7178.467800
18798.319400,1263.410333,5493.920690,-11925.827838
18798.321950,-708.275490,-1818.545176,-9379.864592
18798.324501,-2967.100024,-3081.955509,-9131.011042
18798.327051,497.707101,5915.057467,-11696.116869
18798.329601,-1837.687757,-2182.254211,-8920.442653
18798.332152,-421.136778,-1033.699363,-9379.864592
18798.334701,401.994197,440.279358,-10202.995566
18798.337251,-2488.535504,497.707101,-10394.421374
18798.339801,-1014.556782,-459.421939,-9877.571693
18798.342351,-440.279358,-2029.113565,-9418.149754
18798.344901,-1052.841944,727.418070,-10202.995566
18798.347451,-1818.545176,1550.549045,-10624.132344
18798.350001,229.710970,-2450.250342,-9188.438784
18798.352550,-2871.387120,-516.849682,-9896.714274
18798.355100,689.132909,4594.219392,-11351.550414
18798.357650,1780.260014,-5857.629725,-7714.460062
18798.360200,-459.421939,2909.672282,-10451.849117
18798.362750,4938.785846,3617.947771,-10987.841379
18798.365300,-1052.841944,-6317.051664,-6948.756830
18798.367850,2182.254211,6853.043926,-11581.261384
18798.370399,-0.000000,650.847747,-9915.856854
18798.372949,497.707101,-4823.930362,-8595.018779
18798.375499,2105.683888,-1225.125171,-9341.579430
18798.378049,2124.826469,593.420005,-9934.999435
